participant,group,OS,fovealword,parafovealword,fovealcolour,parafovealcolour,correctcolour,parafovealpositionword,congruency,condition,block,gender,age,handedness,trial,rt,acc
15286,A,MacIntel,RED,SIDE,green,black,green,left,incongruent,foveal_unified,1,male,20,right-handed,1,0.2627,1
15286,A,MacIntel,SHORT,YELLOW,black,green,green,left,incongruent,para_unified,1,male,20,right-handed,2,0.37979,0
15286,A,MacIntel,BLUE,SIDE,blue,black,blue,left,congruent,foveal_unified,1,male,20,right-handed,3,0.297785,0
15286,A,MacIntel,SHORT,GREEN,green,black,green,left,congruent,fov_dis,1,male,20,right-handed,4,0.2953,1
15286,A,MacIntel,SHORT,BLUE,black,green,green,right,incongruent,para_unified,1,male,20,right-handed,5,0.30047,1
15286,A,MacIntel,GREEN,LABEL,blue,black,blue,left,incongruent,foveal_unified,1,male,20,right-handed,6,0.295635,1
15286,A,MacIntel,GREEN,SHORT,black,green,green,left,congruent,para_dis,1,male,20,right-handed,7,0.431905,0
15286,A,MacIntel,SIDE,RED,blue,black,blue,left,incongruent,fov_dis,1,male,20,right-handed,8,0.345815,0
15286,A,MacIntel,MAIN,BLUE,black,red,red,left,incongruent,para_unified,1,male,20,right-handed,9,0.399475,1
15286,A,MacIntel,RED,SHORT,red,black,red,right,congruent,foveal_unified,1,male,20,right-handed,10,0.330075,1
15286,A,MacIntel,RED,SHORT,black,red,red,right,congruent,para_dis,1,male,20,right-handed,11,0.283685,1
15286,A,MacIntel,SHORT,RED,black,red,red,right,congruent,para_unified,1,male,20,right-handed,12,0.26599,1
15286,A,MacIntel,MAIN,RED,black,red,red,left,congruent,para_unified,1,male,20,right-handed,13,0.35053,1
15286,A,MacIntel,GREEN,SIDE,green,black,green,right,congruent,foveal_unified,1,male,20,right-handed,14,0.297315,1
15286,A,MacIntel,SIDE,BLUE,black,blue,blue,left,congruent,para_unified,1,male,20,right-handed,15,0.651935,1
15286,A,MacIntel,YELLOW,SIDE,black,green,green,right,incongruent,para_dis,1,male,20,right-handed,16,0.38193,1
15286,A,MacIntel,GREEN,MAIN,yellow,black,yellow,right,incongruent,foveal_unified,1,male,20,right-handed,17,0.32379,1
15286,A,MacIntel,LABEL,BLUE,blue,black,blue,right,congruent,fov_dis,1,male,20,right-handed,18,0.403055,1
15286,A,MacIntel,YELLOW,MAIN,yellow,black,yellow,right,congruent,foveal_unified,1,male,20,right-handed,19,0.337585,1
15286,A,MacIntel,LABEL,BLUE,black,blue,blue,right,congruent,para_unified,1,male,20,right-handed,20,0.31267,0
15286,A,MacIntel,GREEN,SIDE,black,green,green,right,congruent,para_dis,1,male,20,right-handed,21,0.24811,1
15286,A,MacIntel,SIDE,GREEN,green,black,green,right,congruent,fov_dis,1,male,20,right-handed,22,0.279285,1
15286,A,MacIntel,MAIN,RED,red,black,red,left,congruent,fov_dis,1,male,20,right-handed,23,0.24415,1
15286,A,MacIntel,SHORT,BLUE,green,black,green,right,incongruent,fov_dis,1,male,20,right-handed,24,0.24944,0
15286,A,MacIntel,RED,SIDE,black,green,green,left,incongruent,para_dis,1,male,20,right-handed,25,0.559845,1
15286,A,MacIntel,YELLOW,LABEL,black,yellow,yellow,left,congruent,para_dis,1,male,20,right-handed,26,0.314735,0
15286,A,MacIntel,YELLOW,LABEL,yellow,black,yellow,left,congruent,foveal_unified,1,male,20,right-handed,27,0.26749,1
15286,A,MacIntel,RED,LABEL,blue,black,blue,right,incongruent,foveal_unified,1,male,20,right-handed,28,0.43311,1
15286,A,MacIntel,LABEL,RED,black,yellow,yellow,right,incongruent,para_unified,1,male,20,right-handed,29,0.393525,0
15286,A,MacIntel,SIDE,RED,black,blue,blue,left,incongruent,para_unified,1,male,20,right-handed,30,0.46992,1
15286,A,MacIntel,RED,MAIN,red,black,red,left,congruent,foveal_unified,1,male,20,right-handed,31,0.36577,1
15286,A,MacIntel,LABEL,YELLOW,yellow,black,yellow,left,congruent,fov_dis,1,male,20,right-handed,32,0.29854,1
15286,A,MacIntel,GREEN,MAIN,black,yellow,yellow,right,incongruent,para_dis,1,male,20,right-handed,33,0.365815,1
15286,A,MacIntel,SIDE,YELLOW,blue,black,blue,right,incongruent,fov_dis,1,male,20,right-handed,34,0.35978,1
15286,A,MacIntel,GREEN,SHORT,green,black,green,left,congruent,foveal_unified,1,male,20,right-handed,35,0.38269,1
15286,A,MacIntel,BLUE,SHORT,red,black,red,right,incongruent,foveal_unified,1,male,20,right-handed,36,0.52514,1
15286,A,MacIntel,YELLOW,SIDE,green,black,green,right,incongruent,foveal_unified,1,male,20,right-handed,37,0.33842,1
15286,A,MacIntel,SIDE,BLUE,blue,black,blue,left,congruent,fov_dis,1,male,20,right-handed,38,0.39521,1
15286,A,MacIntel,GREEN,LABEL,black,blue,blue,left,incongruent,para_dis,1,male,20,right-handed,39,0.326725,1
15286,A,MacIntel,BLUE,LABEL,blue,black,blue,right,congruent,foveal_unified,1,male,20,right-handed,40,0.47817,1
15286,A,MacIntel,LABEL,YELLOW,black,yellow,yellow,left,congruent,para_unified,1,male,20,right-handed,41,0.284795,1
15286,A,MacIntel,SHORT,GREEN,black,green,green,left,congruent,para_unified,1,male,20,right-handed,42,0.282505,1
15286,A,MacIntel,YELLOW,SHORT,black,red,red,left,incongruent,para_dis,1,male,20,right-handed,43,0.286395,1
15286,A,MacIntel,RED,MAIN,black,red,red,left,congruent,para_dis,1,male,20,right-handed,44,0.270945,1
15286,A,MacIntel,YELLOW,MAIN,black,yellow,yellow,right,congruent,para_dis,1,male,20,right-handed,45,0.28363,1
15286,A,MacIntel,BLUE,MAIN,black,yellow,yellow,left,incongruent,para_dis,1,male,20,right-handed,46,0.247815,1
15286,A,MacIntel,BLUE,MAIN,yellow,black,yellow,left,incongruent,foveal_unified,1,male,20,right-handed,47,0.3716,1
15286,A,MacIntel,LABEL,RED,yellow,black,yellow,right,incongruent,fov_dis,1,male,20,right-handed,48,0.261415,1
15286,A,MacIntel,MAIN,GREEN,red,black,red,right,incongruent,fov_dis,1,male,20,right-handed,49,0.26449,1
15286,A,MacIntel,SHORT,RED,red,black,red,right,congruent,fov_dis,1,male,20,right-handed,50,0.31015,1
15286,A,MacIntel,RED,LABEL,black,blue,blue,right,incongruent,para_dis,1,male,20,right-handed,51,0.45624,1
15286,A,MacIntel,MAIN,YELLOW,black,yellow,yellow,right,congruent,para_unified,1,male,20,right-handed,52,0.350435,1
15286,A,MacIntel,SHORT,YELLOW,green,black,green,left,incongruent,fov_dis,1,male,20,right-handed,53,0.246065,1
15286,A,MacIntel,SIDE,GREEN,black,green,green,right,congruent,para_unified,1,male,20,right-handed,54,0.24075,1
15286,A,MacIntel,YELLOW,SHORT,red,black,red,left,incongruent,foveal_unified,1,male,20,right-handed,55,0.36652,1
15286,A,MacIntel,MAIN,BLUE,red,black,red,left,incongruent,fov_dis,1,male,20,right-handed,56,0.26822,1
15286,A,MacIntel,BLUE,SHORT,black,red,red,right,incongruent,para_dis,1,male,20,right-handed,57,0.2801,1
15286,A,MacIntel,LABEL,GREEN,black,yellow,yellow,left,incongruent,para_unified,1,male,20,right-handed,58,0.310395,1
15286,A,MacIntel,MAIN,GREEN,black,red,red,right,incongruent,para_unified,1,male,20,right-handed,59,0.24487,1
15286,A,MacIntel,LABEL,GREEN,yellow,black,yellow,left,incongruent,fov_dis,1,male,20,right-handed,60,0.201475,1
15286,A,MacIntel,SIDE,YELLOW,black,blue,blue,right,incongruent,para_unified,1,male,20,right-handed,61,0.40469,1
15286,A,MacIntel,BLUE,SIDE,black,blue,blue,left,congruent,para_dis,1,male,20,right-handed,62,0.346885,1
15286,A,MacIntel,MAIN,YELLOW,yellow,black,yellow,right,congruent,fov_dis,1,male,20,right-handed,63,0.39954,1
15286,A,MacIntel,BLUE,LABEL,black,blue,blue,right,congruent,para_dis,1,male,20,right-handed,64,0.385495,1
15286,A,MacIntel,YELLOW,SHORT,yellow,black,yellow,right,congruent,foveal_unified,2,male,20,right-handed,1,0.432585,1
15286,A,MacIntel,SHORT,YELLOW,yellow,black,yellow,right,congruent,fov_dis,2,male,20,right-handed,2,0.26535,1
15286,A,MacIntel,YELLOW,LABEL,black,red,red,right,incongruent,para_dis,2,male,20,right-handed,3,0.38524,1
15286,A,MacIntel,LABEL,GREEN,black,green,green,right,congruent,para_unified,2,male,20,right-handed,4,0.3017,0
15286,A,MacIntel,SIDE,GREEN,green,black,green,left,congruent,fov_dis,2,male,20,right-handed,5,0.292905,1
15286,A,MacIntel,RED,LABEL,yellow,black,yellow,left,incongruent,foveal_unified,2,male,20,right-handed,6,0.333575,1
15286,A,MacIntel,GREEN,SIDE,black,green,green,left,congruent,para_dis,2,male,20,right-handed,7,0.49885,1
15286,A,MacIntel,GREEN,LABEL,black,green,green,right,congruent,para_dis,2,male,20,right-handed,8,0.390115,1
15286,A,MacIntel,LABEL,YELLOW,green,black,green,right,incongruent,fov_dis,2,male,20,right-handed,9,0.376175,1
15286,A,MacIntel,BLUE,LABEL,black,blue,blue,left,congruent,para_dis,2,male,20,right-handed,10,0.332465,1
15286,A,MacIntel,LABEL,BLUE,black,blue,blue,left,congruent,para_unified,2,male,20,right-handed,11,0.24818,1
15286,A,MacIntel,RED,SHORT,red,black,red,left,congruent,foveal_unified,2,male,20,right-handed,12,0.284125,0
15286,A,MacIntel,SIDE,RED,black,red,red,right,congruent,para_unified,2,male,20,right-handed,13,0.20929,1
15286,A,MacIntel,LABEL,YELLOW,black,green,green,right,incongruent,para_unified,2,male,20,right-handed,14,0.389425,1
15286,A,MacIntel,BLUE,SHORT,green,black,green,left,incongruent,foveal_unified,2,male,20,right-handed,15,0.37701,1
15286,A,MacIntel,RED,LABEL,black,yellow,yellow,left,incongruent,para_dis,2,male,20,right-handed,16,0.302535,0
15286,A,MacIntel,BLUE,SHORT,black,green,green,left,incongruent,para_dis,2,male,20,right-handed,17,0.476635,1
15286,A,MacIntel,SHORT,BLUE,yellow,black,yellow,left,incongruent,fov_dis,2,male,20,right-handed,18,0.48061,1
15286,A,MacIntel,SIDE,BLUE,red,black,red,right,incongruent,fov_dis,2,male,20,right-handed,19,0.337175,1
15286,A,MacIntel,SIDE,RED,red,black,red,right,congruent,fov_dis,2,male,20,right-handed,20,0.30331,1
15286,A,MacIntel,SIDE,YELLOW,black,red,red,left,incongruent,para_unified,2,male,20,right-handed,21,0.29644,1
15286,A,MacIntel,MAIN,RED,black,blue,blue,right,incongruent,para_unified,2,male,20,right-handed,22,0.35873,0
15286,A,MacIntel,MAIN,YELLOW,black,yellow,yellow,left,congruent,para_unified,2,male,20,right-handed,23,0.418485,0
15286,A,MacIntel,GREEN,MAIN,red,black,red,left,incongruent,foveal_unified,2,male,20,right-handed,24,0.36843,1
15286,A,MacIntel,SIDE,BLUE,black,red,red,right,incongruent,para_unified,2,male,20,right-handed,25,0.29954,1
15286,A,MacIntel,BLUE,MAIN,black,blue,blue,right,congruent,para_dis,2,male,20,right-handed,26,0.347895,1
15286,A,MacIntel,MAIN,BLUE,blue,black,blue,right,congruent,fov_dis,2,male,20,right-handed,27,0.302185,1
15286,A,MacIntel,RED,MAIN,black,green,green,right,incongruent,para_dis,2,male,20,right-handed,28,0.465665,1
15286,A,MacIntel,GREEN,SHORT,blue,black,blue,right,incongruent,foveal_unified,2,male,20,right-handed,29,0.41908,0
15286,A,MacIntel,SHORT,BLUE,black,yellow,yellow,left,incongruent,para_unified,2,male,20,right-handed,30,0.353,1
15286,A,MacIntel,YELLOW,LABEL,red,black,red,right,incongruent,foveal_unified,2,male,20,right-handed,31,0.33174,1
15286,A,MacIntel,GREEN,LABEL,green,black,green,right,congruent,foveal_unified,2,male,20,right-handed,32,0.517175,1
15286,A,MacIntel,SHORT,GREEN,yellow,black,yellow,right,incongruent,fov_dis,2,male,20,right-handed,33,0.460415,1
15286,A,MacIntel,SHORT,RED,red,black,red,left,congruent,fov_dis,2,male,20,right-handed,34,0.56657,1
15286,A,MacIntel,MAIN,GREEN,blue,black,blue,left,incongruent,fov_dis,2,male,20,right-handed,35,0.35887,1
15286,A,MacIntel,BLUE,SIDE,yellow,black,yellow,right,incongruent,foveal_unified,2,male,20,right-handed,36,0.319235,1
15286,A,MacIntel,MAIN,RED,blue,black,blue,right,incongruent,fov_dis,2,male,20,right-handed,37,0.365135,1
15286,A,MacIntel,YELLOW,SIDE,blue,black,blue,left,incongruent,foveal_unified,2,male,20,right-handed,38,0.299045,0
15286,A,MacIntel,YELLOW,MAIN,yellow,black,yellow,left,congruent,foveal_unified,2,male,20,right-handed,39,0.20283,1
15286,A,MacIntel,GREEN,SIDE,green,black,green,left,congruent,foveal_unified,2,male,20,right-handed,40,0.46576,1
15286,A,MacIntel,SIDE,YELLOW,red,black,red,left,incongruent,fov_dis,2,male,20,right-handed,41,0.46797,1
15286,A,MacIntel,SHORT,GREEN,black,yellow,yellow,right,incongruent,para_unified,2,male,20,right-handed,42,0.282985,1
15286,A,MacIntel,BLUE,MAIN,blue,black,blue,right,congruent,foveal_unified,2,male,20,right-handed,43,0.248485,1
15286,A,MacIntel,YELLOW,SIDE,black,blue,blue,left,incongruent,para_dis,2,male,20,right-handed,44,0.434075,1
15286,A,MacIntel,GREEN,MAIN,black,red,red,left,incongruent,para_dis,2,male,20,right-handed,45,0.382995,1
15286,A,MacIntel,SIDE,GREEN,black,green,green,left,congruent,para_unified,2,male,20,right-handed,46,0.393535,1
15286,A,MacIntel,SHORT,YELLOW,black,yellow,yellow,right,congruent,para_unified,2,male,20,right-handed,47,0.335025,1
15286,A,MacIntel,YELLOW,MAIN,black,yellow,yellow,left,congruent,para_dis,2,male,20,right-handed,48,0.233715,1
15286,A,MacIntel,LABEL,GREEN,green,black,green,right,congruent,fov_dis,2,male,20,right-handed,49,0.445345,1
15286,A,MacIntel,RED,MAIN,green,black,green,right,incongruent,foveal_unified,2,male,20,right-handed,50,0.270685,1
15286,A,MacIntel,LABEL,BLUE,blue,black,blue,left,congruent,fov_dis,2,male,20,right-handed,51,0.348505,1
15286,A,MacIntel,MAIN,YELLOW,yellow,black,yellow,left,congruent,fov_dis,2,male,20,right-handed,52,0.43447,1
15286,A,MacIntel,BLUE,LABEL,blue,black,blue,left,congruent,foveal_unified,2,male,20,right-handed,53,0.43572,1
15286,A,MacIntel,RED,SHORT,black,red,red,left,congruent,para_dis,2,male,20,right-handed,54,0.365475,1
15286,A,MacIntel,RED,SIDE,black,red,red,right,congruent,para_dis,2,male,20,right-handed,55,0.30096,1
15286,A,MacIntel,LABEL,RED,green,black,green,left,incongruent,fov_dis,2,male,20,right-handed,56,0.282765,1
15286,A,MacIntel,RED,SIDE,red,black,red,right,congruent,foveal_unified,2,male,20,right-handed,57,0.389595,1
15286,A,MacIntel,MAIN,GREEN,black,blue,blue,left,incongruent,para_unified,2,male,20,right-handed,58,0.21568,1
15286,A,MacIntel,SHORT,RED,black,red,red,left,congruent,para_unified,2,male,20,right-handed,59,0.285795,0
15286,A,MacIntel,YELLOW,SHORT,black,yellow,yellow,right,congruent,para_dis,2,male,20,right-handed,60,0.365005,1
15286,A,MacIntel,GREEN,SHORT,black,blue,blue,right,incongruent,para_dis,2,male,20,right-handed,61,0.380455,0
15286,A,MacIntel,LABEL,RED,black,green,green,left,incongruent,para_unified,2,male,20,right-handed,62,0.567605,1
15286,A,MacIntel,MAIN,BLUE,black,blue,blue,right,congruent,para_unified,2,male,20,right-handed,63,0.35361,0
15286,A,MacIntel,BLUE,SIDE,black,yellow,yellow,right,incongruent,para_dis,2,male,20,right-handed,64,0.409715,1
15286,A,MacIntel,SIDE,GREEN,red,black,red,right,incongruent,fov_dis,3,male,20,right-handed,1,0.335195,1
15286,A,MacIntel,BLUE,MAIN,black,blue,blue,left,congruent,para_dis,3,male,20,right-handed,2,0.3991,1
15286,A,MacIntel,SHORT,YELLOW,yellow,black,yellow,left,congruent,fov_dis,3,male,20,right-handed,3,0.24088,1
15286,A,MacIntel,LABEL,BLUE,black,green,green,right,incongruent,para_unified,3,male,20,right-handed,4,0.33571,1
15286,A,MacIntel,LABEL,YELLOW,green,black,green,left,incongruent,fov_dis,3,male,20,right-handed,5,0.309445,1
15286,A,MacIntel,SHORT,GREEN,black,yellow,yellow,left,incongruent,para_unified,3,male,20,right-handed,6,0.380585,1
15286,A,MacIntel,YELLOW,MAIN,black,green,green,right,incongruent,para_dis,3,male,20,right-handed,7,0.42578,1
15286,A,MacIntel,LABEL,RED,red,black,red,right,congruent,fov_dis,3,male,20,right-handed,8,0.4228,1
15286,A,MacIntel,RED,MAIN,black,green,green,left,incongruent,para_dis,3,male,20,right-handed,9,0.38073,1
15286,A,MacIntel,SIDE,RED,red,black,red,left,congruent,fov_dis,3,male,20,right-handed,10,0.49972,1
15286,A,MacIntel,MAIN,GREEN,black,green,green,right,congruent,para_unified,3,male,20,right-handed,11,0.408135,1
15286,A,MacIntel,RED,SHORT,blue,black,blue,right,incongruent,foveal_unified,3,male,20,right-handed,12,0.26094,1
15286,A,MacIntel,BLUE,MAIN,blue,black,blue,left,congruent,foveal_unified,3,male,20,right-handed,13,0.386575,1
15286,A,MacIntel,SHORT,BLUE,blue,black,blue,right,congruent,fov_dis,3,male,20,right-handed,14,0.351425,0
15286,A,MacIntel,MAIN,YELLOW,black,blue,blue,right,incongruent,para_unified,3,male,20,right-handed,15,0.328615,1
15286,A,MacIntel,SIDE,YELLOW,black,yellow,yellow,right,congruent,para_unified,3,male,20,right-handed,16,0.3189,1
15286,A,MacIntel,BLUE,LABEL,black,red,red,right,incongruent,para_dis,3,male,20,right-handed,17,0.29784,1
15286,A,MacIntel,BLUE,SHORT,blue,black,blue,right,congruent,foveal_unified,3,male,20,right-handed,18,0.345905,1
15286,A,MacIntel,YELLOW,LABEL,black,red,red,left,incongruent,para_dis,3,male,20,right-handed,19,0.41741,1
15286,A,MacIntel,GREEN,LABEL,green,black,green,left,congruent,foveal_unified,3,male,20,right-handed,20,0.326375,0
15286,A,MacIntel,BLUE,SIDE,yellow,black,yellow,left,incongruent,foveal_unified,3,male,20,right-handed,21,0.39917,1
15286,A,MacIntel,YELLOW,SIDE,black,yellow,yellow,right,congruent,para_dis,3,male,20,right-handed,22,0.32026,1
15286,A,MacIntel,GREEN,SHORT,blue,black,blue,left,incongruent,foveal_unified,3,male,20,right-handed,23,0.43431,1
15286,A,MacIntel,RED,SIDE,red,black,red,left,congruent,foveal_unified,3,male,20,right-handed,24,0.31106,1
15286,A,MacIntel,LABEL,RED,black,red,red,right,congruent,para_unified,3,male,20,right-handed,25,0.284935,1
15286,A,MacIntel,MAIN,RED,blue,black,blue,left,incongruent,fov_dis,3,male,20,right-handed,26,0.367425,1
15286,A,MacIntel,YELLOW,MAIN,green,black,green,right,incongruent,foveal_unified,3,male,20,right-handed,27,0.480605,1
15286,A,MacIntel,SHORT,YELLOW,black,yellow,yellow,left,congruent,para_unified,3,male,20,right-handed,28,0.498825,1
15286,A,MacIntel,MAIN,BLUE,black,blue,blue,left,congruent,para_unified,3,male,20,right-handed,29,0.86096,1
15286,A,MacIntel,LABEL,YELLOW,black,green,green,left,incongruent,para_unified,3,male,20,right-handed,30,0.380635,1
15286,A,MacIntel,LABEL,GREEN,black,green,green,left,congruent,para_unified,3,male,20,right-handed,31,0.2958,1
15286,A,MacIntel,BLUE,SIDE,black,yellow,yellow,left,incongruent,para_dis,3,male,20,right-handed,32,0.404155,1
15286,A,MacIntel,RED,SHORT,black,blue,blue,right,incongruent,para_dis,3,male,20,right-handed,33,0.418445,1
15286,A,MacIntel,BLUE,LABEL,red,black,red,right,incongruent,foveal_unified,3,male,20,right-handed,34,0.302,1
15286,A,MacIntel,RED,LABEL,black,red,red,right,congruent,para_dis,3,male,20,right-handed,35,0.38114,1
15286,A,MacIntel,SHORT,RED,black,yellow,yellow,right,incongruent,para_unified,3,male,20,right-handed,36,0.286715,1
15286,A,MacIntel,YELLOW,SHORT,black,yellow,yellow,left,congruent,para_dis,3,male,20,right-handed,37,0.25964,1
15286,A,MacIntel,RED,SIDE,black,red,red,left,congruent,para_dis,3,male,20,right-handed,38,0.41444,1
15286,A,MacIntel,SIDE,BLUE,red,black,red,left,incongruent,fov_dis,3,male,20,right-handed,39,0.267035,1
15286,A,MacIntel,RED,LABEL,red,black,red,right,congruent,foveal_unified,3,male,20,right-handed,40,0.26941,1
15286,A,MacIntel,GREEN,MAIN,black,green,green,right,congruent,para_dis,3,male,20,right-handed,41,0.23554,1
15286,A,MacIntel,SIDE,RED,black,red,red,left,congruent,para_unified,3,male,20,right-handed,42,0.34953,0
15286,A,MacIntel,SIDE,YELLOW,yellow,black,yellow,right,congruent,fov_dis,3,male,20,right-handed,43,0.331675,1
15286,A,MacIntel,MAIN,BLUE,blue,black,blue,left,congruent,fov_dis,3,male,20,right-handed,44,0.381055,1
15286,A,MacIntel,GREEN,MAIN,green,black,green,right,congruent,foveal_unified,3,male,20,right-handed,45,0.302265,0
15286,A,MacIntel,MAIN,RED,black,blue,blue,left,incongruent,para_unified,3,male,20,right-handed,46,0.419615,1
15286,A,MacIntel,SIDE,BLUE,black,red,red,left,incongruent,para_unified,3,male,20,right-handed,47,0.34717,1
15286,A,MacIntel,LABEL,BLUE,green,black,green,right,incongruent,fov_dis,3,male,20,right-handed,48,0.42045,1
15286,A,MacIntel,SIDE,GREEN,black,red,red,right,incongruent,para_unified,3,male,20,right-handed,49,0.31943,0
15286,A,MacIntel,GREEN,LABEL,black,green,green,left,congruent,para_dis,3,male,20,right-handed,50,0.38338,1
15286,A,MacIntel,RED,MAIN,green,black,green,left,incongruent,foveal_unified,3,male,20,right-handed,51,0.33423,1
15286,A,MacIntel,GREEN,SIDE,yellow,black,yellow,right,incongruent,foveal_unified,3,male,20,right-handed,52,0.39661,1
15286,A,MacIntel,YELLOW,SIDE,yellow,black,yellow,right,congruent,foveal_unified,3,male,20,right-handed,53,0.322875,1
15286,A,MacIntel,MAIN,YELLOW,blue,black,blue,right,incongruent,fov_dis,3,male,20,right-handed,54,0.34893,1
15286,A,MacIntel,GREEN,SIDE,black,yellow,yellow,right,incongruent,para_dis,3,male,20,right-handed,55,0.488205,1
15286,A,MacIntel,BLUE,SHORT,black,blue,blue,right,congruent,para_dis,3,male,20,right-handed,56,0.36454,1
15286,A,MacIntel,GREEN,SHORT,black,blue,blue,left,incongruent,para_dis,3,male,20,right-handed,57,0.26743,1
15286,A,MacIntel,SHORT,BLUE,black,blue,blue,right,congruent,para_unified,3,male,20,right-handed,58,0.36565,1
15286,A,MacIntel,SHORT,GREEN,yellow,black,yellow,left,incongruent,fov_dis,3,male,20,right-handed,59,0.32147,1
15286,A,MacIntel,YELLOW,SHORT,yellow,black,yellow,left,congruent,foveal_unified,3,male,20,right-handed,60,0.350745,1
15286,A,MacIntel,SHORT,RED,yellow,black,yellow,right,incongruent,fov_dis,3,male,20,right-handed,61,0.29558,1
15286,A,MacIntel,LABEL,GREEN,green,black,green,left,congruent,fov_dis,3,male,20,right-handed,62,0.383525,0
15286,A,MacIntel,MAIN,GREEN,green,black,green,right,congruent,fov_dis,3,male,20,right-handed,63,0.311765,1
15286,A,MacIntel,YELLOW,LABEL,red,black,red,left,incongruent,foveal_unified,3,male,20,right-handed,64,0.3344,1
15286,A,MacIntel,YELLOW,LABEL,yellow,black,yellow,right,congruent,foveal_unified,4,male,20,right-handed,1,0.352775,1
15286,A,MacIntel,GREEN,LABEL,black,blue,blue,right,incongruent,para_dis,4,male,20,right-handed,2,0.39349,1
15286,A,MacIntel,GREEN,SHORT,green,black,green,right,congruent,foveal_unified,4,male,20,right-handed,3,0.38186,1
15286,A,MacIntel,SIDE,YELLOW,yellow,black,yellow,left,congruent,fov_dis,4,male,20,right-handed,4,0.291445,1
15286,A,MacIntel,YELLOW,MAIN,black,blue,blue,left,incongruent,para_dis,4,male,20,right-handed,5,0.399425,1
15286,A,MacIntel,MAIN,GREEN,green,black,green,left,congruent,fov_dis,4,male,20,right-handed,6,0.332565,1
15286,A,MacIntel,GREEN,MAIN,green,black,green,left,congruent,foveal_unified,4,male,20,right-handed,7,0.315625,1
15286,A,MacIntel,SHORT,BLUE,black,blue,blue,left,congruent,para_unified,4,male,20,right-handed,8,0.281885,1
15286,A,MacIntel,MAIN,BLUE,red,black,red,right,incongruent,fov_dis,4,male,20,right-handed,9,0.417455,1
15286,A,MacIntel,BLUE,SIDE,black,blue,blue,right,congruent,para_dis,4,male,20,right-handed,10,0.33263,0
15286,A,MacIntel,YELLOW,MAIN,blue,black,blue,left,incongruent,foveal_unified,4,male,20,right-handed,11,0.279155,1
15286,A,MacIntel,SIDE,BLUE,blue,black,blue,right,congruent,fov_dis,4,male,20,right-handed,12,0.339845,1
15286,A,MacIntel,SIDE,BLUE,black,blue,blue,right,congruent,para_unified,4,male,20,right-handed,13,0.230155,1
15286,A,MacIntel,SIDE,RED,blue,black,blue,right,incongruent,fov_dis,4,male,20,right-handed,14,0.249845,1
15286,A,MacIntel,SHORT,GREEN,green,black,green,right,congruent,fov_dis,4,male,20,right-handed,15,0.285245,1
15286,A,MacIntel,BLUE,SHORT,blue,black,blue,left,congruent,foveal_unified,4,male,20,right-handed,16,0.33345,1
15286,A,MacIntel,BLUE,MAIN,black,yellow,yellow,right,incongruent,para_dis,4,male,20,right-handed,17,0.348735,1
15286,A,MacIntel,LABEL,YELLOW,black,yellow,yellow,right,congruent,para_unified,4,male,20,right-handed,18,0.298215,1
15286,A,MacIntel,SIDE,RED,black,blue,blue,right,incongruent,para_unified,4,male,20,right-handed,19,0.34595,1
15286,A,MacIntel,RED,MAIN,black,red,red,right,congruent,para_dis,4,male,20,right-handed,20,0.36621,1
15286,A,MacIntel,YELLOW,SHORT,red,black,red,right,incongruent,foveal_unified,4,male,20,right-handed,21,0.548705,1
15286,A,MacIntel,RED,MAIN,red,black,red,right,congruent,foveal_unified,4,male,20,right-handed,22,0.334235,1
15286,A,MacIntel,GREEN,SIDE,black,red,red,left,incongruent,para_dis,4,male,20,right-handed,23,0.2469,1
15286,A,MacIntel,SHORT,YELLOW,black,green,green,right,incongruent,para_unified,4,male,20,right-handed,24,0.24639,0
15286,A,MacIntel,SHORT,GREEN,black,green,green,right,congruent,para_unified,4,male,20,right-handed,25,0.383715,1
15286,A,MacIntel,RED,LABEL,red,black,red,left,congruent,foveal_unified,4,male,20,right-handed,26,0.26199,1
15286,A,MacIntel,RED,SIDE,green,black,green,right,incongruent,foveal_unified,4,male,20,right-handed,27,0.50027,1
15286,A,MacIntel,LABEL,BLUE,black,yellow,yellow,left,incongruent,para_unified,4,male,20,right-handed,28,0.365255,0
15286,A,MacIntel,SHORT,BLUE,blue,black,blue,left,congruent,fov_dis,4,male,20,right-handed,29,0.297215,0
15286,A,MacIntel,GREEN,SHORT,black,green,green,right,congruent,para_dis,4,male,20,right-handed,30,0.413605,1
15286,A,MacIntel,RED,LABEL,black,red,red,left,congruent,para_dis,4,male,20,right-handed,31,0.267995,1
15286,A,MacIntel,SHORT,YELLOW,green,black,green,right,incongruent,fov_dis,4,male,20,right-handed,32,0.392625,1
15286,A,MacIntel,SIDE,YELLOW,black,yellow,yellow,left,congruent,para_unified,4,male,20,right-handed,33,0.38503,0
15286,A,MacIntel,LABEL,RED,red,black,red,left,congruent,fov_dis,4,male,20,right-handed,34,0.300075,1
15286,A,MacIntel,SIDE,GREEN,black,blue,blue,left,incongruent,para_unified,4,male,20,right-handed,35,0.49931,1
15286,A,MacIntel,BLUE,SIDE,blue,black,blue,right,congruent,foveal_unified,4,male,20,right-handed,36,0.39954,1
15286,A,MacIntel,SHORT,RED,black,green,green,left,incongruent,para_unified,4,male,20,right-handed,37,0.588425,1
15286,A,MacIntel,MAIN,GREEN,black,green,green,left,congruent,para_unified,4,male,20,right-handed,38,0.264975,1
15286,A,MacIntel,BLUE,SHORT,black,blue,blue,left,congruent,para_dis,4,male,20,right-handed,39,0.26511,1
15286,A,MacIntel,MAIN,RED,red,black,red,right,congruent,fov_dis,4,male,20,right-handed,40,0.42037,1
15286,A,MacIntel,LABEL,RED,black,red,red,left,congruent,para_unified,4,male,20,right-handed,41,0.329795,1
15286,A,MacIntel,SHORT,RED,green,black,green,left,incongruent,fov_dis,4,male,20,right-handed,42,0.35446,1
15286,A,MacIntel,YELLOW,LABEL,black,yellow,yellow,right,congruent,para_dis,4,male,20,right-handed,43,0.285175,1
15286,A,MacIntel,BLUE,LABEL,green,black,green,left,incongruent,foveal_unified,4,male,20,right-handed,44,0.34536,1
15286,A,MacIntel,GREEN,LABEL,blue,black,blue,right,incongruent,foveal_unified,4,male,20,right-handed,45,0.414775,1
15286,A,MacIntel,RED,SIDE,black,green,green,right,incongruent,para_dis,4,male,20,right-handed,46,0.30202,1
15286,A,MacIntel,YELLOW,SIDE,yellow,black,yellow,left,congruent,foveal_unified,4,male,20,right-handed,47,0.4278,1
15286,A,MacIntel,BLUE,LABEL,black,green,green,left,incongruent,para_dis,4,male,20,right-handed,48,0.35205,1
15286,A,MacIntel,YELLOW,SIDE,black,yellow,yellow,left,congruent,para_dis,4,male,20,right-handed,49,0.42018,1
15286,A,MacIntel,LABEL,GREEN,black,yellow,yellow,right,incongruent,para_unified,4,male,20,right-handed,50,0.316745,1
15286,A,MacIntel,MAIN,YELLOW,red,black,red,left,incongruent,fov_dis,4,male,20,right-handed,51,0.43763,1
15286,A,MacIntel,LABEL,BLUE,yellow,black,yellow,left,incongruent,fov_dis,4,male,20,right-handed,52,0.295195,1
15286,A,MacIntel,YELLOW,SHORT,black,red,red,right,incongruent,para_dis,4,male,20,right-handed,53,0.393635,1
15286,A,MacIntel,MAIN,YELLOW,black,red,red,left,incongruent,para_unified,4,male,20,right-handed,54,0.26988,1
15286,A,MacIntel,GREEN,SIDE,red,black,red,left,incongruent,foveal_unified,4,male,20,right-handed,55,0.26066,1
15286,A,MacIntel,RED,SHORT,black,yellow,yellow,left,incongruent,para_dis,4,male,20,right-handed,56,0.33281,1
15286,A,MacIntel,GREEN,MAIN,black,green,green,left,congruent,para_dis,4,male,20,right-handed,57,0.471,1
15286,A,MacIntel,SIDE,GREEN,blue,black,blue,left,incongruent,fov_dis,4,male,20,right-handed,58,0.532825,1
15286,A,MacIntel,RED,SHORT,yellow,black,yellow,left,incongruent,foveal_unified,4,male,20,right-handed,59,0.403985,1
15286,A,MacIntel,LABEL,GREEN,yellow,black,yellow,right,incongruent,fov_dis,4,male,20,right-handed,60,0.250545,1
15286,A,MacIntel,BLUE,MAIN,yellow,black,yellow,right,incongruent,foveal_unified,4,male,20,right-handed,61,0.217355,1
15286,A,MacIntel,MAIN,BLUE,black,red,red,right,incongruent,para_unified,4,male,20,right-handed,62,0.315715,1
15286,A,MacIntel,LABEL,YELLOW,yellow,black,yellow,right,congruent,fov_dis,4,male,20,right-handed,63,0.264895,0
15286,A,MacIntel,MAIN,RED,black,red,red,right,congruent,para_unified,4,male,20,right-handed,64,0.34852,1
15286,A,MacIntel,BLUE,SIDE,black,blue,blue,left,congruent,para_dis,5,male,20,right-handed,1,0.314265,0
15286,A,MacIntel,GREEN,LABEL,black,blue,blue,left,incongruent,para_dis,5,male,20,right-handed,2,0.21328,1
15286,A,MacIntel,RED,LABEL,black,blue,blue,right,incongruent,para_dis,5,male,20,right-handed,3,0.345845,0
15286,A,MacIntel,LABEL,RED,black,yellow,yellow,right,incongruent,para_unified,5,male,20,right-handed,4,0.267945,1
15286,A,MacIntel,BLUE,SHORT,black,red,red,right,incongruent,para_dis,5,male,20,right-handed,5,0.44213,1
15286,A,MacIntel,RED,MAIN,black,red,red,left,congruent,para_dis,5,male,20,right-handed,6,0.2693,1
15286,A,MacIntel,GREEN,LABEL,blue,black,blue,left,incongruent,foveal_unified,5,male,20,right-handed,7,0.34854,0
15286,A,MacIntel,MAIN,RED,black,red,red,left,congruent,para_unified,5,male,20,right-handed,8,0.343615,1
15286,A,MacIntel,MAIN,YELLOW,black,yellow,yellow,right,congruent,para_unified,5,male,20,right-handed,9,0.219595,1
15286,A,MacIntel,BLUE,LABEL,black,blue,blue,right,congruent,para_dis,5,male,20,right-handed,10,0.348705,1
15286,A,MacIntel,LABEL,RED,yellow,black,yellow,right,incongruent,fov_dis,5,male,20,right-handed,11,0.382315,1
15286,A,MacIntel,SHORT,RED,red,black,red,right,congruent,fov_dis,5,male,20,right-handed,12,0.264385,1
15286,A,MacIntel,GREEN,SIDE,black,green,green,right,congruent,para_dis,5,male,20,right-handed,13,0.415955,1
15286,A,MacIntel,LABEL,GREEN,black,yellow,yellow,left,incongruent,para_unified,5,male,20,right-handed,14,0.41186,1
15286,A,MacIntel,SIDE,YELLOW,black,blue,blue,right,incongruent,para_unified,5,male,20,right-handed,15,0.294985,0
15286,A,MacIntel,GREEN,MAIN,black,yellow,yellow,right,incongruent,para_dis,5,male,20,right-handed,16,0.33853,1
15286,A,MacIntel,SIDE,RED,blue,black,blue,left,incongruent,fov_dis,5,male,20,right-handed,17,0.33352,1
15286,A,MacIntel,GREEN,SHORT,black,green,green,left,congruent,para_dis,5,male,20,right-handed,18,0.333035,1
15286,A,MacIntel,SHORT,GREEN,green,black,green,left,congruent,fov_dis,5,male,20,right-handed,19,0.359995,0
15286,A,MacIntel,SIDE,BLUE,black,blue,blue,left,congruent,para_unified,5,male,20,right-handed,20,0.466195,1
15286,A,MacIntel,YELLOW,MAIN,yellow,black,yellow,right,congruent,foveal_unified,5,male,20,right-handed,21,0.252215,1
15286,A,MacIntel,SHORT,YELLOW,green,black,green,left,incongruent,fov_dis,5,male,20,right-handed,22,0.2617,0
15286,A,MacIntel,YELLOW,LABEL,black,yellow,yellow,left,congruent,para_dis,5,male,20,right-handed,23,0.3541,1
15286,A,MacIntel,SIDE,GREEN,green,black,green,right,congruent,fov_dis,5,male,20,right-handed,24,0.498565,1
15286,A,MacIntel,SIDE,BLUE,blue,black,blue,left,congruent,fov_dis,5,male,20,right-handed,25,0.34466,1
15286,A,MacIntel,SIDE,GREEN,black,green,green,right,congruent,para_unified,5,male,20,right-handed,26,0.54859,1
15286,A,MacIntel,MAIN,BLUE,black,red,red,left,incongruent,para_unified,5,male,20,right-handed,27,0.518815,1
15286,A,MacIntel,LABEL,BLUE,blue,black,blue,right,congruent,fov_dis,5,male,20,right-handed,28,0.34996,1
15286,A,MacIntel,BLUE,LABEL,blue,black,blue,right,congruent,foveal_unified,5,male,20,right-handed,29,0.3517,1
15286,A,MacIntel,RED,SIDE,black,green,green,left,incongruent,para_dis,5,male,20,right-handed,30,0.64187,1
15286,A,MacIntel,GREEN,MAIN,yellow,black,yellow,right,incongruent,foveal_unified,5,male,20,right-handed,31,0.366375,1
15286,A,MacIntel,YELLOW,SHORT,black,red,red,left,incongruent,para_dis,5,male,20,right-handed,32,0.35091,1
15286,A,MacIntel,YELLOW,SHORT,red,black,red,left,incongruent,foveal_unified,5,male,20,right-handed,33,0.31068,1
15286,A,MacIntel,YELLOW,SIDE,black,green,green,right,incongruent,para_dis,5,male,20,right-handed,34,0.363365,1
15286,A,MacIntel,MAIN,GREEN,black,red,red,right,incongruent,para_unified,5,male,20,right-handed,35,0.330505,0
15286,A,MacIntel,GREEN,SHORT,green,black,green,left,congruent,foveal_unified,5,male,20,right-handed,36,0.250205,1
15286,A,MacIntel,MAIN,BLUE,red,black,red,left,incongruent,fov_dis,5,male,20,right-handed,37,0.25008,1
15286,A,MacIntel,GREEN,SIDE,green,black,green,right,congruent,foveal_unified,5,male,20,right-handed,38,0.279705,1
15286,A,MacIntel,BLUE,MAIN,black,yellow,yellow,left,incongruent,para_dis,5,male,20,right-handed,39,0.41458,1
15286,A,MacIntel,RED,MAIN,red,black,red,left,congruent,foveal_unified,5,male,20,right-handed,40,0.22875499999999999,1
15286,A,MacIntel,SIDE,RED,black,blue,blue,left,incongruent,para_unified,5,male,20,right-handed,41,0.482255,1
15286,A,MacIntel,LABEL,GREEN,yellow,black,yellow,left,incongruent,fov_dis,5,male,20,right-handed,42,0.355465,1
15286,A,MacIntel,SHORT,BLUE,green,black,green,right,incongruent,fov_dis,5,male,20,right-handed,43,0.41371,1
15286,A,MacIntel,BLUE,SHORT,red,black,red,right,incongruent,foveal_unified,5,male,20,right-handed,44,0.34827,1
15286,A,MacIntel,BLUE,SIDE,blue,black,blue,left,congruent,foveal_unified,5,male,20,right-handed,45,0.436955,1
15286,A,MacIntel,YELLOW,SIDE,green,black,green,right,incongruent,foveal_unified,5,male,20,right-handed,46,0.3475,1
15286,A,MacIntel,SHORT,YELLOW,black,green,green,left,incongruent,para_unified,5,male,20,right-handed,47,0.328295,1
15286,A,MacIntel,LABEL,YELLOW,yellow,black,yellow,left,congruent,fov_dis,5,male,20,right-handed,48,0.24409,1
15286,A,MacIntel,RED,SHORT,black,red,red,right,congruent,para_dis,5,male,20,right-handed,49,0.48372,1
15286,A,MacIntel,YELLOW,MAIN,black,yellow,yellow,right,congruent,para_dis,5,male,20,right-handed,50,0.48609,1
15286,A,MacIntel,MAIN,GREEN,red,black,red,right,incongruent,fov_dis,5,male,20,right-handed,51,0.32797,1
15286,A,MacIntel,SHORT,BLUE,black,green,green,right,incongruent,para_unified,5,male,20,right-handed,52,0.30996,1
15286,A,MacIntel,YELLOW,LABEL,yellow,black,yellow,left,congruent,foveal_unified,5,male,20,right-handed,53,0.2949,1
15286,A,MacIntel,RED,SHORT,red,black,red,right,congruent,foveal_unified,5,male,20,right-handed,54,0.582855,1
15286,A,MacIntel,RED,SIDE,green,black,green,left,incongruent,foveal_unified,5,male,20,right-handed,55,0.300375,1
15286,A,MacIntel,SHORT,RED,black,red,red,right,congruent,para_unified,5,male,20,right-handed,56,0.37475,1
15286,A,MacIntel,SIDE,YELLOW,blue,black,blue,right,incongruent,fov_dis,5,male,20,right-handed,57,0.35092,0
15286,A,MacIntel,LABEL,YELLOW,black,yellow,yellow,left,congruent,para_unified,5,male,20,right-handed,58,0.349935,1
15286,A,MacIntel,MAIN,YELLOW,yellow,black,yellow,right,congruent,fov_dis,5,male,20,right-handed,59,0.282465,1
15286,A,MacIntel,RED,LABEL,blue,black,blue,right,incongruent,foveal_unified,5,male,20,right-handed,60,0.3158,0
15286,A,MacIntel,LABEL,BLUE,black,blue,blue,right,congruent,para_unified,5,male,20,right-handed,61,0.233215,1
15286,A,MacIntel,SHORT,GREEN,black,green,green,left,congruent,para_unified,5,male,20,right-handed,62,0.255015,1
15286,A,MacIntel,MAIN,RED,red,black,red,left,congruent,fov_dis,5,male,20,right-handed,63,0.299215,1
15286,A,MacIntel,BLUE,MAIN,yellow,black,yellow,left,incongruent,foveal_unified,5,male,20,right-handed,64,0.24923,1
15286,A,MacIntel,SHORT,BLUE,yellow,black,yellow,left,incongruent,fov_dis,6,male,20,right-handed,1,0.334595,1
15286,A,MacIntel,GREEN,SIDE,black,green,green,left,congruent,para_dis,6,male,20,right-handed,2,0.362765,0
15286,A,MacIntel,YELLOW,LABEL,red,black,red,right,incongruent,foveal_unified,6,male,20,right-handed,3,0.247245,0
15286,A,MacIntel,GREEN,SIDE,green,black,green,left,congruent,foveal_unified,6,male,20,right-handed,4,0.34979,1
15286,A,MacIntel,RED,SHORT,black,red,red,left,congruent,para_dis,6,male,20,right-handed,5,0.35273,1
15286,A,MacIntel,LABEL,GREEN,black,green,green,right,congruent,para_unified,6,male,20,right-handed,6,0.328555,1
15286,A,MacIntel,GREEN,MAIN,red,black,red,left,incongruent,foveal_unified,6,male,20,right-handed,7,0.19516,0
15286,A,MacIntel,SHORT,GREEN,yellow,black,yellow,right,incongruent,fov_dis,6,male,20,right-handed,8,0.331255,0
15286,A,MacIntel,SIDE,GREEN,green,black,green,left,congruent,fov_dis,6,male,20,right-handed,9,0.349025,1
15286,A,MacIntel,MAIN,GREEN,black,blue,blue,left,incongruent,para_unified,6,male,20,right-handed,10,0.45012,0
15286,A,MacIntel,GREEN,LABEL,black,green,green,right,congruent,para_dis,6,male,20,right-handed,11,0.41051,1
15286,A,MacIntel,MAIN,BLUE,black,blue,blue,right,congruent,para_unified,6,male,20,right-handed,12,0.265395,1
15286,A,MacIntel,YELLOW,SIDE,blue,black,blue,left,incongruent,foveal_unified,6,male,20,right-handed,13,0.2623,0
15286,A,MacIntel,BLUE,SHORT,black,green,green,left,incongruent,para_dis,6,male,20,right-handed,14,0.29748,0
15286,A,MacIntel,BLUE,LABEL,black,blue,blue,left,congruent,para_dis,6,male,20,right-handed,15,0.28148,0
15286,A,MacIntel,LABEL,YELLOW,black,green,green,right,incongruent,para_unified,6,male,20,right-handed,16,0.332245,1
15286,A,MacIntel,MAIN,BLUE,blue,black,blue,right,congruent,fov_dis,6,male,20,right-handed,17,0.48712,1
15286,A,MacIntel,SIDE,GREEN,black,green,green,left,congruent,para_unified,6,male,20,right-handed,18,0.312065,1
15286,A,MacIntel,YELLOW,SHORT,yellow,black,yellow,right,congruent,foveal_unified,6,male,20,right-handed,19,0.392145,1
15286,A,MacIntel,LABEL,RED,black,green,green,left,incongruent,para_unified,6,male,20,right-handed,20,0.65059,0
15286,A,MacIntel,SHORT,RED,red,black,red,left,congruent,fov_dis,6,male,20,right-handed,21,0.446565,1
15286,A,MacIntel,BLUE,LABEL,blue,black,blue,left,congruent,foveal_unified,6,male,20,right-handed,22,0.34751,1
15286,A,MacIntel,GREEN,MAIN,black,red,red,left,incongruent,para_dis,6,male,20,right-handed,23,0.41773,0
15286,A,MacIntel,BLUE,MAIN,black,blue,blue,right,congruent,para_dis,6,male,20,right-handed,24,0.36135,1
15286,A,MacIntel,MAIN,RED,black,blue,blue,right,incongruent,para_unified,6,male,20,right-handed,25,0.377595,0
15286,A,MacIntel,BLUE,SIDE,yellow,black,yellow,right,incongruent,foveal_unified,6,male,20,right-handed,26,0.399985,0
15286,A,MacIntel,YELLOW,LABEL,black,red,red,right,incongruent,para_dis,6,male,20,right-handed,27,0.333115,0
15286,A,MacIntel,GREEN,SHORT,black,blue,blue,right,incongruent,para_dis,6,male,20,right-handed,28,0.319185,0
15286,A,MacIntel,RED,SHORT,red,black,red,left,congruent,foveal_unified,6,male,20,right-handed,29,0.45291,1
15286,A,MacIntel,MAIN,YELLOW,black,yellow,yellow,left,congruent,para_unified,6,male,20,right-handed,30,0.39868,1
15286,A,MacIntel,SIDE,YELLOW,red,black,red,left,incongruent,fov_dis,6,male,20,right-handed,31,0.42566,0
15286,A,MacIntel,SIDE,BLUE,black,red,red,right,incongruent,para_unified,6,male,20,right-handed,32,0.29874,0
15286,A,MacIntel,RED,SIDE,black,red,red,right,congruent,para_dis,6,male,20,right-handed,33,0.352615,1
15286,A,MacIntel,BLUE,SIDE,black,yellow,yellow,right,incongruent,para_dis,6,male,20,right-handed,34,0.292835,0
15286,A,MacIntel,RED,MAIN,green,black,green,right,incongruent,foveal_unified,6,male,20,right-handed,35,0.363335,1
15286,A,MacIntel,SIDE,RED,red,black,red,right,congruent,fov_dis,6,male,20,right-handed,36,0.363625,1
15286,A,MacIntel,SHORT,GREEN,black,yellow,yellow,right,incongruent,para_unified,6,male,20,right-handed,37,0.22958,0
15286,A,MacIntel,YELLOW,MAIN,yellow,black,yellow,left,congruent,foveal_unified,6,male,20,right-handed,38,0.19964,1
15286,A,MacIntel,LABEL,RED,green,black,green,left,incongruent,fov_dis,6,male,20,right-handed,39,0.358985,0
15286,A,MacIntel,SHORT,YELLOW,yellow,black,yellow,right,congruent,fov_dis,6,male,20,right-handed,40,0.26604,1
15286,A,MacIntel,MAIN,RED,blue,black,blue,right,incongruent,fov_dis,6,male,20,right-handed,41,0.33935,0
15286,A,MacIntel,GREEN,SHORT,blue,black,blue,right,incongruent,foveal_unified,6,male,20,right-handed,42,0.35229,0
15286,A,MacIntel,SHORT,YELLOW,black,yellow,yellow,right,congruent,para_unified,6,male,20,right-handed,43,0.365745,0
15286,A,MacIntel,SIDE,BLUE,red,black,red,right,incongruent,fov_dis,6,male,20,right-handed,44,0.386515,0
15286,A,MacIntel,LABEL,YELLOW,green,black,green,right,incongruent,fov_dis,6,male,20,right-handed,45,0.37582,0
15286,A,MacIntel,GREEN,LABEL,green,black,green,right,congruent,foveal_unified,6,male,20,right-handed,46,0.29733,1
15286,A,MacIntel,SIDE,RED,black,red,red,right,congruent,para_unified,6,male,20,right-handed,47,0.32381,0
15286,A,MacIntel,LABEL,BLUE,blue,black,blue,left,congruent,fov_dis,6,male,20,right-handed,48,0.33447,0
15286,A,MacIntel,RED,LABEL,yellow,black,yellow,left,incongruent,foveal_unified,6,male,20,right-handed,49,0.26809,0
15286,A,MacIntel,SIDE,YELLOW,black,red,red,left,incongruent,para_unified,6,male,20,right-handed,50,0.28887,0
15286,A,MacIntel,RED,MAIN,black,green,green,right,incongruent,para_dis,6,male,20,right-handed,51,0.29161,0
15286,A,MacIntel,BLUE,SHORT,green,black,green,left,incongruent,foveal_unified,6,male,20,right-handed,52,0.4147,0
15286,A,MacIntel,RED,LABEL,black,yellow,yellow,left,incongruent,para_dis,6,male,20,right-handed,53,0.367025,0
15286,A,MacIntel,SHORT,BLUE,black,yellow,yellow,left,incongruent,para_unified,6,male,20,right-handed,54,0.269395,0
15286,A,MacIntel,YELLOW,SIDE,black,blue,blue,left,incongruent,para_dis,6,male,20,right-handed,55,0.399715,0
15286,A,MacIntel,MAIN,GREEN,blue,black,blue,left,incongruent,fov_dis,6,male,20,right-handed,56,0.378665,0
15286,A,MacIntel,RED,SIDE,red,black,red,right,congruent,foveal_unified,6,male,20,right-handed,57,0.36971,1
15286,A,MacIntel,LABEL,GREEN,green,black,green,right,congruent,fov_dis,6,male,20,right-handed,58,0.34807,0
15286,A,MacIntel,BLUE,MAIN,blue,black,blue,right,congruent,foveal_unified,6,male,20,right-handed,59,0.38371,1
15286,A,MacIntel,SHORT,RED,black,red,red,left,congruent,para_unified,6,male,20,right-handed,60,0.31167,1
15286,A,MacIntel,YELLOW,MAIN,black,yellow,yellow,left,congruent,para_dis,6,male,20,right-handed,61,0.281365,1
15286,A,MacIntel,LABEL,BLUE,black,blue,blue,left,congruent,para_unified,6,male,20,right-handed,62,0.41028,1
15286,A,MacIntel,MAIN,YELLOW,yellow,black,yellow,left,congruent,fov_dis,6,male,20,right-handed,63,0.450125,1
15286,A,MacIntel,YELLOW,SHORT,black,yellow,yellow,right,congruent,para_dis,6,male,20,right-handed,64,0.31838,1
15286,A,MacIntel,YELLOW,MAIN,green,black,green,right,incongruent,foveal_unified,7,male,20,right-handed,1,0.33156,1
15286,A,MacIntel,RED,LABEL,red,black,red,right,congruent,foveal_unified,7,male,20,right-handed,2,0.183595,0
15286,A,MacIntel,RED,MAIN,green,black,green,left,incongruent,foveal_unified,7,male,20,right-handed,3,0.41232,1
15286,A,MacIntel,RED,SIDE,red,black,red,left,congruent,foveal_unified,7,male,20,right-handed,4,0.330245,0
15286,A,MacIntel,GREEN,LABEL,green,black,green,left,congruent,foveal_unified,7,male,20,right-handed,5,0.25895,1
15286,A,MacIntel,GREEN,SHORT,black,blue,blue,left,incongruent,para_dis,7,male,20,right-handed,6,0.345095,1
15286,A,MacIntel,BLUE,SIDE,black,yellow,yellow,left,incongruent,para_dis,7,male,20,right-handed,7,2.99875,1
15286,A,MacIntel,MAIN,RED,blue,black,blue,left,incongruent,fov_dis,7,male,20,right-handed,8,0.3283,0
15286,A,MacIntel,MAIN,YELLOW,blue,black,blue,right,incongruent,fov_dis,7,male,20,right-handed,9,0.283225,1
15286,A,MacIntel,SIDE,GREEN,red,black,red,right,incongruent,fov_dis,7,male,20,right-handed,10,0.29687,1
15286,A,MacIntel,SHORT,RED,black,yellow,yellow,right,incongruent,para_unified,7,male,20,right-handed,11,0.320285,1
15286,A,MacIntel,GREEN,MAIN,black,green,green,right,congruent,para_dis,7,male,20,right-handed,12,0.30222,1
15286,A,MacIntel,YELLOW,LABEL,red,black,red,left,incongruent,foveal_unified,7,male,20,right-handed,13,0.34446,1
15286,A,MacIntel,SHORT,BLUE,black,blue,blue,right,congruent,para_unified,7,male,20,right-handed,14,0.348475,1
15286,A,MacIntel,RED,LABEL,black,red,red,right,congruent,para_dis,7,male,20,right-handed,15,0.38078,0
15286,A,MacIntel,RED,SIDE,black,red,red,left,congruent,para_dis,7,male,20,right-handed,16,0.316625,1
15286,A,MacIntel,BLUE,SIDE,yellow,black,yellow,left,incongruent,foveal_unified,7,male,20,right-handed,17,0.494235,1
15286,A,MacIntel,GREEN,SHORT,blue,black,blue,left,incongruent,foveal_unified,7,male,20,right-handed,18,0.40182,1
15286,A,MacIntel,BLUE,SHORT,black,blue,blue,right,congruent,para_dis,7,male,20,right-handed,19,0.262345,1
15286,A,MacIntel,GREEN,LABEL,black,green,green,left,congruent,para_dis,7,male,20,right-handed,20,0.29927,1
15286,A,MacIntel,MAIN,RED,black,blue,blue,left,incongruent,para_unified,7,male,20,right-handed,21,0.331935,1
15286,A,MacIntel,GREEN,MAIN,green,black,green,right,congruent,foveal_unified,7,male,20,right-handed,22,NA,0
15286,A,MacIntel,YELLOW,SHORT,black,yellow,yellow,left,congruent,para_dis,7,male,20,right-handed,23,2.77983,1
15286,A,MacIntel,SIDE,RED,black,red,red,left,congruent,para_unified,7,male,20,right-handed,24,0.31334,1
15286,A,MacIntel,LABEL,YELLOW,black,green,green,left,incongruent,para_unified,7,male,20,right-handed,25,0.400005,1
15286,A,MacIntel,YELLOW,MAIN,black,green,green,right,incongruent,para_dis,7,male,20,right-handed,26,0.327855,1
15286,A,MacIntel,YELLOW,LABEL,black,red,red,left,incongruent,para_dis,7,male,20,right-handed,27,0.37184,1
15286,A,MacIntel,BLUE,LABEL,black,red,red,right,incongruent,para_dis,7,male,20,right-handed,28,0.403385,1
15286,A,MacIntel,MAIN,BLUE,blue,black,blue,left,congruent,fov_dis,7,male,20,right-handed,29,0.36933,1
15286,A,MacIntel,SIDE,YELLOW,yellow,black,yellow,right,congruent,fov_dis,7,male,20,right-handed,30,0.365645,1
15286,A,MacIntel,SIDE,BLUE,black,red,red,left,incongruent,para_unified,7,male,20,right-handed,31,0.456405,1
15286,A,MacIntel,LABEL,RED,red,black,red,right,congruent,fov_dis,7,male,20,right-handed,32,0.232725,1
15286,A,MacIntel,BLUE,MAIN,blue,black,blue,left,congruent,foveal_unified,7,male,20,right-handed,33,0.221585,1
15286,A,MacIntel,RED,MAIN,black,green,green,left,incongruent,para_dis,7,male,20,right-handed,34,0.250045,1
15286,A,MacIntel,MAIN,GREEN,green,black,green,right,congruent,fov_dis,7,male,20,right-handed,35,0.230905,1
15286,A,MacIntel,LABEL,GREEN,green,black,green,left,congruent,fov_dis,7,male,20,right-handed,36,0.28394,1
15286,A,MacIntel,BLUE,SHORT,blue,black,blue,right,congruent,foveal_unified,7,male,20,right-handed,37,0.35653,0
15286,A,MacIntel,YELLOW,SHORT,yellow,black,yellow,left,congruent,foveal_unified,7,male,20,right-handed,38,0.369585,1
15286,A,MacIntel,LABEL,BLUE,black,green,green,right,incongruent,para_unified,7,male,20,right-handed,39,0.414705,1
15286,A,MacIntel,MAIN,GREEN,black,green,green,right,congruent,para_unified,7,male,20,right-handed,40,0.29925,1
15286,A,MacIntel,GREEN,SIDE,black,yellow,yellow,right,incongruent,para_dis,7,male,20,right-handed,41,0.40867,1
15286,A,MacIntel,BLUE,MAIN,black,blue,blue,left,congruent,para_dis,7,male,20,right-handed,42,0.436815,1
15286,A,MacIntel,SHORT,BLUE,blue,black,blue,right,congruent,fov_dis,7,male,20,right-handed,43,0.29376,0
15286,A,MacIntel,RED,SHORT,blue,black,blue,right,incongruent,foveal_unified,7,male,20,right-handed,44,0.24824,1
15286,A,MacIntel,MAIN,YELLOW,black,blue,blue,right,incongruent,para_unified,7,male,20,right-handed,45,0.41609,1
15286,A,MacIntel,LABEL,YELLOW,green,black,green,left,incongruent,fov_dis,7,male,20,right-handed,46,0.265505,1
15286,A,MacIntel,YELLOW,SIDE,black,yellow,yellow,right,congruent,para_dis,7,male,20,right-handed,47,0.37559,1
15286,A,MacIntel,MAIN,BLUE,black,blue,blue,left,congruent,para_unified,7,male,20,right-handed,48,0.298705,1
15286,A,MacIntel,YELLOW,SIDE,yellow,black,yellow,right,congruent,foveal_unified,7,male,20,right-handed,49,0.313095,0
15286,A,MacIntel,LABEL,RED,black,red,red,right,congruent,para_unified,7,male,20,right-handed,50,0.400645,1
15286,A,MacIntel,SHORT,YELLOW,black,yellow,yellow,left,congruent,para_unified,7,male,20,right-handed,51,0.36312,1
15286,A,MacIntel,SHORT,GREEN,yellow,black,yellow,left,incongruent,fov_dis,7,male,20,right-handed,52,0.299055,1
15286,A,MacIntel,SIDE,GREEN,black,red,red,right,incongruent,para_unified,7,male,20,right-handed,53,0.54811,1
15286,A,MacIntel,BLUE,LABEL,red,black,red,right,incongruent,foveal_unified,7,male,20,right-handed,54,0.330795,1
15286,A,MacIntel,SIDE,BLUE,red,black,red,left,incongruent,fov_dis,7,male,20,right-handed,55,0.291895,1
15286,A,MacIntel,GREEN,SIDE,yellow,black,yellow,right,incongruent,foveal_unified,7,male,20,right-handed,56,0.31851,1
15286,A,MacIntel,LABEL,BLUE,green,black,green,right,incongruent,fov_dis,7,male,20,right-handed,57,0.417525,1
15286,A,MacIntel,SIDE,YELLOW,black,yellow,yellow,right,congruent,para_unified,7,male,20,right-handed,58,0.343535,0
15286,A,MacIntel,LABEL,GREEN,black,green,green,left,congruent,para_unified,7,male,20,right-handed,59,0.3125,1
15286,A,MacIntel,SHORT,GREEN,black,yellow,yellow,left,incongruent,para_unified,7,male,20,right-handed,60,0.38953,1
15286,A,MacIntel,RED,SHORT,black,blue,blue,right,incongruent,para_dis,7,male,20,right-handed,61,0.3828,1
15286,A,MacIntel,SIDE,RED,red,black,red,left,congruent,fov_dis,7,male,20,right-handed,62,0.30693,1
15286,A,MacIntel,SHORT,RED,yellow,black,yellow,right,incongruent,fov_dis,7,male,20,right-handed,63,0.307515,1
15286,A,MacIntel,SHORT,YELLOW,yellow,black,yellow,left,congruent,fov_dis,7,male,20,right-handed,64,0.37122,1
15286,A,MacIntel,MAIN,GREEN,black,green,green,left,congruent,para_unified,8,male,20,right-handed,1,0.366885,0
15286,A,MacIntel,RED,SIDE,green,black,green,right,incongruent,foveal_unified,8,male,20,right-handed,2,0.25925,0
15286,A,MacIntel,GREEN,SIDE,black,red,red,left,incongruent,para_dis,8,male,20,right-handed,3,0.36287,0
15286,A,MacIntel,LABEL,RED,black,red,red,left,congruent,para_unified,8,male,20,right-handed,4,0.269215,1
15286,A,MacIntel,LABEL,BLUE,yellow,black,yellow,left,incongruent,fov_dis,8,male,20,right-handed,5,0.24267,0
15286,A,MacIntel,BLUE,MAIN,yellow,black,yellow,right,incongruent,foveal_unified,8,male,20,right-handed,6,0.26701,0
15286,A,MacIntel,MAIN,YELLOW,black,red,red,left,incongruent,para_unified,8,male,20,right-handed,7,0.243835,0
15286,A,MacIntel,GREEN,SHORT,green,black,green,right,congruent,foveal_unified,8,male,20,right-handed,8,0.431965,1
15286,A,MacIntel,LABEL,YELLOW,yellow,black,yellow,right,congruent,fov_dis,8,male,20,right-handed,9,0.352405,0
15286,A,MacIntel,MAIN,RED,red,black,red,right,congruent,fov_dis,8,male,20,right-handed,10,0.29893,1
15286,A,MacIntel,SHORT,BLUE,black,blue,blue,left,congruent,para_unified,8,male,20,right-handed,11,0.45365,1
15286,A,MacIntel,MAIN,BLUE,black,red,red,right,incongruent,para_unified,8,male,20,right-handed,12,0.533765,0
15286,A,MacIntel,BLUE,MAIN,black,yellow,yellow,right,incongruent,para_dis,8,male,20,right-handed,13,0.21472,0
15286,A,MacIntel,BLUE,SHORT,blue,black,blue,left,congruent,foveal_unified,8,male,20,right-handed,14,0.264115,0
15286,A,MacIntel,SHORT,GREEN,green,black,green,right,congruent,fov_dis,8,male,20,right-handed,15,0.31358,1
15286,A,MacIntel,BLUE,LABEL,green,black,green,left,incongruent,foveal_unified,8,male,20,right-handed,16,0.5451,0
15286,A,MacIntel,LABEL,BLUE,black,yellow,yellow,left,incongruent,para_unified,8,male,20,right-handed,17,0.330425,0
15286,A,MacIntel,SIDE,YELLOW,black,yellow,yellow,left,congruent,para_unified,8,male,20,right-handed,18,0.28156,0
15286,A,MacIntel,RED,SHORT,black,yellow,yellow,left,incongruent,para_dis,8,male,20,right-handed,19,0.213885,0
15286,A,MacIntel,MAIN,BLUE,red,black,red,right,incongruent,fov_dis,8,male,20,right-handed,20,0.247685,0
15286,A,MacIntel,SHORT,YELLOW,black,green,green,right,incongruent,para_unified,8,male,20,right-handed,21,0.3804,1
15286,A,MacIntel,LABEL,YELLOW,black,yellow,yellow,right,congruent,para_unified,8,male,20,right-handed,22,0.267175,1
15286,A,MacIntel,RED,LABEL,black,red,red,left,congruent,para_dis,8,male,20,right-handed,23,0.28661,1
15286,A,MacIntel,MAIN,GREEN,green,black,green,left,congruent,fov_dis,8,male,20,right-handed,24,0.370035,1
15286,A,MacIntel,GREEN,SIDE,red,black,red,left,incongruent,foveal_unified,8,male,20,right-handed,25,0.26528,0
15286,A,MacIntel,GREEN,LABEL,black,blue,blue,right,incongruent,para_dis,8,male,20,right-handed,26,0.498735,0
15286,A,MacIntel,RED,MAIN,red,black,red,right,congruent,foveal_unified,8,male,20,right-handed,27,0.327205,1
15286,A,MacIntel,SHORT,GREEN,black,green,green,right,congruent,para_unified,8,male,20,right-handed,28,0.365765,1
15286,A,MacIntel,SHORT,YELLOW,green,black,green,right,incongruent,fov_dis,8,male,20,right-handed,29,0.383415,0
15286,A,MacIntel,YELLOW,SIDE,yellow,black,yellow,left,congruent,foveal_unified,8,male,20,right-handed,30,0.29612,1
15286,A,MacIntel,MAIN,RED,black,red,red,right,congruent,para_unified,8,male,20,right-handed,31,0.33353,1
15286,A,MacIntel,YELLOW,SHORT,black,red,red,right,incongruent,para_dis,8,male,20,right-handed,32,0.31342,0
15286,A,MacIntel,YELLOW,LABEL,yellow,black,yellow,right,congruent,foveal_unified,8,male,20,right-handed,33,0.407225,1
15286,A,MacIntel,SIDE,BLUE,blue,black,blue,right,congruent,fov_dis,8,male,20,right-handed,34,0.761715,1
15286,A,MacIntel,SIDE,YELLOW,yellow,black,yellow,left,congruent,fov_dis,8,male,20,right-handed,35,0.33293,1
15286,A,MacIntel,GREEN,SHORT,black,green,green,right,congruent,para_dis,8,male,20,right-handed,36,0.298065,1
15286,A,MacIntel,BLUE,SIDE,blue,black,blue,right,congruent,foveal_unified,8,male,20,right-handed,37,0.29282,1
15286,A,MacIntel,RED,MAIN,black,red,red,right,congruent,para_dis,8,male,20,right-handed,38,0.464545,1
15286,A,MacIntel,BLUE,SIDE,black,blue,blue,right,congruent,para_dis,8,male,20,right-handed,39,0.37933,1
15286,A,MacIntel,GREEN,MAIN,black,green,green,left,congruent,para_dis,8,male,20,right-handed,40,0.383685,0
15286,A,MacIntel,GREEN,MAIN,green,black,green,left,congruent,foveal_unified,8,male,20,right-handed,41,0.28061,1
15286,A,MacIntel,SIDE,BLUE,black,blue,blue,right,congruent,para_unified,8,male,20,right-handed,42,0.33178,1
15286,A,MacIntel,SHORT,RED,green,black,green,left,incongruent,fov_dis,8,male,20,right-handed,43,0.292815,0
15286,A,MacIntel,RED,SHORT,yellow,black,yellow,left,incongruent,foveal_unified,8,male,20,right-handed,44,0.328695,0
15286,A,MacIntel,YELLOW,SIDE,black,yellow,yellow,left,congruent,para_dis,8,male,20,right-handed,45,0.28247,1
15286,A,MacIntel,LABEL,RED,red,black,red,left,congruent,fov_dis,8,male,20,right-handed,46,0.34793,1
15286,A,MacIntel,SHORT,BLUE,blue,black,blue,left,congruent,fov_dis,8,male,20,right-handed,47,0.299995,1
15286,A,MacIntel,SIDE,RED,black,blue,blue,right,incongruent,para_unified,8,male,20,right-handed,48,0.35092,0
15286,A,MacIntel,LABEL,GREEN,black,yellow,yellow,right,incongruent,para_unified,8,male,20,right-handed,49,0.33156,0
15286,A,MacIntel,BLUE,SHORT,black,blue,blue,left,congruent,para_dis,8,male,20,right-handed,50,0.3622,1
15286,A,MacIntel,BLUE,LABEL,black,green,green,left,incongruent,para_dis,8,male,20,right-handed,51,0.46849,0
15286,A,MacIntel,LABEL,GREEN,yellow,black,yellow,right,incongruent,fov_dis,8,male,20,right-handed,52,0.298675,0
15286,A,MacIntel,SIDE,RED,blue,black,blue,right,incongruent,fov_dis,8,male,20,right-handed,53,0.38217,0
15286,A,MacIntel,YELLOW,LABEL,black,yellow,yellow,right,congruent,para_dis,8,male,20,right-handed,54,0.40185,1
15286,A,MacIntel,GREEN,LABEL,blue,black,blue,right,incongruent,foveal_unified,8,male,20,right-handed,55,0.37928,0
15286,A,MacIntel,MAIN,YELLOW,red,black,red,left,incongruent,fov_dis,8,male,20,right-handed,56,0.33108,0
15286,A,MacIntel,RED,SIDE,black,green,green,right,incongruent,para_dis,8,male,20,right-handed,57,0.39727,0
15286,A,MacIntel,SIDE,GREEN,black,blue,blue,left,incongruent,para_unified,8,male,20,right-handed,58,0.204535,0
15286,A,MacIntel,YELLOW,SHORT,red,black,red,right,incongruent,foveal_unified,8,male,20,right-handed,59,0.4011,0
15286,A,MacIntel,YELLOW,MAIN,blue,black,blue,left,incongruent,foveal_unified,8,male,20,right-handed,60,0.347405,0
15286,A,MacIntel,RED,LABEL,red,black,red,left,congruent,foveal_unified,8,male,20,right-handed,61,0.30584,0
15286,A,MacIntel,SIDE,GREEN,blue,black,blue,left,incongruent,fov_dis,8,male,20,right-handed,62,0.453655,0
15286,A,MacIntel,SHORT,RED,black,green,green,left,incongruent,para_unified,8,male,20,right-handed,63,0.44549,0
15286,A,MacIntel,YELLOW,MAIN,black,blue,blue,left,incongruent,para_dis,8,male,20,right-handed,64,0.28441,0
16462,A,MacIntel,SIDE,GREEN,green,black,green,right,congruent,fov_dis,1,female,19,right-handed,1,0.88,1
16462,A,MacIntel,GREEN,SHORT,black,green,green,left,congruent,para_dis,1,female,19,right-handed,2,0.369,1
16462,A,MacIntel,RED,SHORT,red,black,red,right,congruent,foveal_unified,1,female,19,right-handed,3,0.699,1
16462,A,MacIntel,SHORT,YELLOW,black,green,green,left,incongruent,para_unified,1,female,19,right-handed,4,0.452,1
16462,A,MacIntel,YELLOW,SIDE,black,green,green,right,incongruent,para_dis,1,female,19,right-handed,5,0.493,1
16462,A,MacIntel,YELLOW,SHORT,black,red,red,left,incongruent,para_dis,1,female,19,right-handed,6,0.388,1
16462,A,MacIntel,MAIN,YELLOW,yellow,black,yellow,right,congruent,fov_dis,1,female,19,right-handed,7,0.63,1
16462,A,MacIntel,MAIN,BLUE,red,black,red,left,incongruent,fov_dis,1,female,19,right-handed,8,0.531,1
16462,A,MacIntel,MAIN,RED,red,black,red,left,congruent,fov_dis,1,female,19,right-handed,9,0.564,1
16462,A,MacIntel,YELLOW,LABEL,yellow,black,yellow,left,congruent,foveal_unified,1,female,19,right-handed,10,0.487,1
16462,A,MacIntel,BLUE,SIDE,black,blue,blue,left,congruent,para_dis,1,female,19,right-handed,11,0.681,1
16462,A,MacIntel,LABEL,YELLOW,black,yellow,yellow,left,congruent,para_unified,1,female,19,right-handed,12,0.727,1
16462,A,MacIntel,SHORT,RED,red,black,red,right,congruent,fov_dis,1,female,19,right-handed,13,0.553,1
16462,A,MacIntel,MAIN,BLUE,black,red,red,left,incongruent,para_unified,1,female,19,right-handed,14,0.571,1
16462,A,MacIntel,BLUE,SHORT,red,black,red,right,incongruent,foveal_unified,1,female,19,right-handed,15,0.38,1
16462,A,MacIntel,GREEN,SIDE,green,black,green,right,congruent,foveal_unified,1,female,19,right-handed,16,0.427,1
16462,A,MacIntel,RED,SIDE,black,green,green,left,incongruent,para_dis,1,female,19,right-handed,17,0.41,1
16462,A,MacIntel,SHORT,YELLOW,green,black,green,left,incongruent,fov_dis,1,female,19,right-handed,18,0.465,1
16462,A,MacIntel,RED,SHORT,black,red,red,right,congruent,para_dis,1,female,19,right-handed,19,0.363,1
16462,A,MacIntel,SIDE,YELLOW,black,blue,blue,right,incongruent,para_unified,1,female,19,right-handed,20,0.651,1
16462,A,MacIntel,LABEL,YELLOW,yellow,black,yellow,left,congruent,fov_dis,1,female,19,right-handed,21,0.546,1
16462,A,MacIntel,BLUE,SHORT,black,red,red,right,incongruent,para_dis,1,female,19,right-handed,22,0.531,1
16462,A,MacIntel,SIDE,YELLOW,blue,black,blue,right,incongruent,fov_dis,1,female,19,right-handed,23,0.657,1
16462,A,MacIntel,MAIN,RED,black,red,red,left,congruent,para_unified,1,female,19,right-handed,24,0.594,1
16462,A,MacIntel,SIDE,GREEN,black,green,green,right,congruent,para_unified,1,female,19,right-handed,25,0.788,1
16462,A,MacIntel,RED,MAIN,red,black,red,left,congruent,foveal_unified,1,female,19,right-handed,26,0.485,1
16462,A,MacIntel,YELLOW,SIDE,green,black,green,right,incongruent,foveal_unified,1,female,19,right-handed,27,0.663,1
16462,A,MacIntel,RED,LABEL,black,blue,blue,right,incongruent,para_dis,1,female,19,right-handed,28,0.56,1
16462,A,MacIntel,LABEL,BLUE,blue,black,blue,right,congruent,fov_dis,1,female,19,right-handed,29,0.471,1
16462,A,MacIntel,GREEN,MAIN,yellow,black,yellow,right,incongruent,foveal_unified,1,female,19,right-handed,30,0.538,1
16462,A,MacIntel,BLUE,MAIN,black,yellow,yellow,left,incongruent,para_dis,1,female,19,right-handed,31,0.524,1
16462,A,MacIntel,SHORT,BLUE,black,green,green,right,incongruent,para_unified,1,female,19,right-handed,32,0.647,1
16462,A,MacIntel,LABEL,GREEN,black,yellow,yellow,left,incongruent,para_unified,1,female,19,right-handed,33,0.856,1
16462,A,MacIntel,GREEN,LABEL,blue,black,blue,left,incongruent,foveal_unified,1,female,19,right-handed,34,0.613,1
16462,A,MacIntel,SIDE,RED,black,blue,blue,left,incongruent,para_unified,1,female,19,right-handed,35,0.529,1
16462,A,MacIntel,GREEN,SHORT,green,black,green,left,congruent,foveal_unified,1,female,19,right-handed,36,0.731,1
16462,A,MacIntel,MAIN,GREEN,red,black,red,right,incongruent,fov_dis,1,female,19,right-handed,37,0.468,1
16462,A,MacIntel,SHORT,GREEN,black,green,green,left,congruent,para_unified,1,female,19,right-handed,38,0.597,1
16462,A,MacIntel,YELLOW,MAIN,yellow,black,yellow,right,congruent,foveal_unified,1,female,19,right-handed,39,0.543,1
16462,A,MacIntel,SHORT,GREEN,green,black,green,left,congruent,fov_dis,1,female,19,right-handed,40,1.012,1
16462,A,MacIntel,LABEL,BLUE,black,blue,blue,right,congruent,para_unified,1,female,19,right-handed,41,0.472,1
16462,A,MacIntel,YELLOW,LABEL,black,yellow,yellow,left,congruent,para_dis,1,female,19,right-handed,42,0.572,1
16462,A,MacIntel,BLUE,LABEL,blue,black,blue,right,congruent,foveal_unified,1,female,19,right-handed,43,0.585,1
16462,A,MacIntel,RED,SIDE,green,black,green,left,incongruent,foveal_unified,1,female,19,right-handed,44,0.752,1
16462,A,MacIntel,GREEN,MAIN,black,yellow,yellow,right,incongruent,para_dis,1,female,19,right-handed,45,0.568,1
16462,A,MacIntel,GREEN,LABEL,black,blue,blue,left,incongruent,para_dis,1,female,19,right-handed,46,0.551,1
16462,A,MacIntel,BLUE,SIDE,blue,black,blue,left,congruent,foveal_unified,1,female,19,right-handed,47,0.434,1
16462,A,MacIntel,MAIN,GREEN,black,red,red,right,incongruent,para_unified,1,female,19,right-handed,48,1.214,1
16462,A,MacIntel,LABEL,GREEN,yellow,black,yellow,left,incongruent,fov_dis,1,female,19,right-handed,49,0.544,1
16462,A,MacIntel,YELLOW,MAIN,black,yellow,yellow,right,congruent,para_dis,1,female,19,right-handed,50,0.522,1
16462,A,MacIntel,SHORT,BLUE,green,black,green,right,incongruent,fov_dis,1,female,19,right-handed,51,0.538,1
16462,A,MacIntel,BLUE,LABEL,black,blue,blue,right,congruent,para_dis,1,female,19,right-handed,52,0.609,1
16462,A,MacIntel,BLUE,MAIN,yellow,black,yellow,left,incongruent,foveal_unified,1,female,19,right-handed,53,0.649,1
16462,A,MacIntel,GREEN,SIDE,black,green,green,right,congruent,para_dis,1,female,19,right-handed,54,0.828,1
16462,A,MacIntel,MAIN,YELLOW,black,yellow,yellow,right,congruent,para_unified,1,female,19,right-handed,55,0.577,1
16462,A,MacIntel,LABEL,RED,black,yellow,yellow,right,incongruent,para_unified,1,female,19,right-handed,56,0.474,1
16462,A,MacIntel,SHORT,RED,black,red,red,right,congruent,para_unified,1,female,19,right-handed,57,0.594,1
16462,A,MacIntel,LABEL,RED,yellow,black,yellow,right,incongruent,fov_dis,1,female,19,right-handed,58,0.487,1
16462,A,MacIntel,YELLOW,SHORT,red,black,red,left,incongruent,foveal_unified,1,female,19,right-handed,59,0.744,1
16462,A,MacIntel,SIDE,BLUE,black,blue,blue,left,congruent,para_unified,1,female,19,right-handed,60,0.585,1
16462,A,MacIntel,SIDE,BLUE,blue,black,blue,left,congruent,fov_dis,1,female,19,right-handed,61,0.481,1
16462,A,MacIntel,RED,MAIN,black,red,red,left,congruent,para_dis,1,female,19,right-handed,62,0.652,1
16462,A,MacIntel,SIDE,RED,blue,black,blue,left,incongruent,fov_dis,1,female,19,right-handed,63,1.073,1
16462,A,MacIntel,RED,LABEL,blue,black,blue,right,incongruent,foveal_unified,1,female,19,right-handed,64,0.56,1
16462,A,MacIntel,SIDE,BLUE,black,red,red,right,incongruent,para_unified,2,female,19,right-handed,1,0.686,1
16462,A,MacIntel,LABEL,GREEN,green,black,green,right,congruent,fov_dis,2,female,19,right-handed,2,0.603,1
16462,A,MacIntel,LABEL,BLUE,blue,black,blue,left,congruent,fov_dis,2,female,19,right-handed,3,0.359,1
16462,A,MacIntel,YELLOW,LABEL,red,black,red,right,incongruent,foveal_unified,2,female,19,right-handed,4,0.396,1
16462,A,MacIntel,BLUE,SIDE,black,yellow,yellow,right,incongruent,para_dis,2,female,19,right-handed,5,0.508,1
16462,A,MacIntel,SHORT,RED,red,black,red,left,congruent,fov_dis,2,female,19,right-handed,6,0.548,1
16462,A,MacIntel,SIDE,GREEN,green,black,green,left,congruent,fov_dis,2,female,19,right-handed,7,0.476,1
16462,A,MacIntel,SIDE,RED,red,black,red,right,congruent,fov_dis,2,female,19,right-handed,8,0.416,1
16462,A,MacIntel,LABEL,GREEN,black,green,green,right,congruent,para_unified,2,female,19,right-handed,9,0.48,1
16462,A,MacIntel,MAIN,RED,blue,black,blue,right,incongruent,fov_dis,2,female,19,right-handed,10,0.387,1
16462,A,MacIntel,BLUE,SHORT,black,green,green,left,incongruent,para_dis,2,female,19,right-handed,11,0.496,1
16462,A,MacIntel,RED,MAIN,black,green,green,right,incongruent,para_dis,2,female,19,right-handed,12,0.422,1
16462,A,MacIntel,RED,MAIN,green,black,green,right,incongruent,foveal_unified,2,female,19,right-handed,13,0.581,1
16462,A,MacIntel,SIDE,BLUE,red,black,red,right,incongruent,fov_dis,2,female,19,right-handed,14,0.286,1
16462,A,MacIntel,GREEN,MAIN,red,black,red,left,incongruent,foveal_unified,2,female,19,right-handed,15,0.308,1
16462,A,MacIntel,YELLOW,SHORT,black,yellow,yellow,right,congruent,para_dis,2,female,19,right-handed,16,0.253,1
16462,A,MacIntel,BLUE,SHORT,green,black,green,left,incongruent,foveal_unified,2,female,19,right-handed,17,0.347,1
16462,A,MacIntel,YELLOW,MAIN,black,yellow,yellow,left,congruent,para_dis,2,female,19,right-handed,18,0.437,0
16462,A,MacIntel,GREEN,SIDE,green,black,green,left,congruent,foveal_unified,2,female,19,right-handed,19,0.529,1
16462,A,MacIntel,YELLOW,SIDE,black,blue,blue,left,incongruent,para_dis,2,female,19,right-handed,20,0.446,1
16462,A,MacIntel,RED,SIDE,red,black,red,right,congruent,foveal_unified,2,female,19,right-handed,21,0.543,1
16462,A,MacIntel,LABEL,YELLOW,black,green,green,right,incongruent,para_unified,2,female,19,right-handed,22,0.861,1
16462,A,MacIntel,YELLOW,LABEL,black,red,red,right,incongruent,para_dis,2,female,19,right-handed,23,0.756,1
16462,A,MacIntel,GREEN,SHORT,black,blue,blue,right,incongruent,para_dis,2,female,19,right-handed,24,0.489,1
16462,A,MacIntel,LABEL,RED,black,green,green,left,incongruent,para_unified,2,female,19,right-handed,25,0.972,1
16462,A,MacIntel,MAIN,YELLOW,yellow,black,yellow,left,congruent,fov_dis,2,female,19,right-handed,26,1.15,1
16462,A,MacIntel,BLUE,LABEL,black,blue,blue,left,congruent,para_dis,2,female,19,right-handed,27,0.634,1
16462,A,MacIntel,YELLOW,SHORT,yellow,black,yellow,right,congruent,foveal_unified,2,female,19,right-handed,28,0.518,1
16462,A,MacIntel,SHORT,GREEN,black,yellow,yellow,right,incongruent,para_unified,2,female,19,right-handed,29,0.313,1
16462,A,MacIntel,BLUE,MAIN,black,blue,blue,right,congruent,para_dis,2,female,19,right-handed,30,0.596,1
16462,A,MacIntel,SIDE,YELLOW,red,black,red,left,incongruent,fov_dis,2,female,19,right-handed,31,0.869,1
16462,A,MacIntel,SIDE,YELLOW,black,red,red,left,incongruent,para_unified,2,female,19,right-handed,32,0.438,1
16462,A,MacIntel,GREEN,SIDE,black,green,green,left,congruent,para_dis,2,female,19,right-handed,33,0.821,1
16462,A,MacIntel,GREEN,SHORT,blue,black,blue,right,incongruent,foveal_unified,2,female,19,right-handed,34,0.504,1
16462,A,MacIntel,LABEL,YELLOW,green,black,green,right,incongruent,fov_dis,2,female,19,right-handed,35,0.409,1
16462,A,MacIntel,MAIN,YELLOW,black,yellow,yellow,left,congruent,para_unified,2,female,19,right-handed,36,0.459,1
16462,A,MacIntel,YELLOW,SIDE,blue,black,blue,left,incongruent,foveal_unified,2,female,19,right-handed,37,0.403,0
16462,A,MacIntel,GREEN,LABEL,green,black,green,right,congruent,foveal_unified,2,female,19,right-handed,38,0.664,1
16462,A,MacIntel,BLUE,MAIN,blue,black,blue,right,congruent,foveal_unified,2,female,19,right-handed,39,0.361,1
16462,A,MacIntel,RED,SHORT,black,red,red,left,congruent,para_dis,2,female,19,right-handed,40,0.513,1
16462,A,MacIntel,RED,SIDE,black,red,red,right,congruent,para_dis,2,female,19,right-handed,41,0.418,1
16462,A,MacIntel,BLUE,LABEL,blue,black,blue,left,congruent,foveal_unified,2,female,19,right-handed,42,0.62,1
16462,A,MacIntel,LABEL,RED,green,black,green,left,incongruent,fov_dis,2,female,19,right-handed,43,0.326,1
16462,A,MacIntel,LABEL,BLUE,black,blue,blue,left,congruent,para_unified,2,female,19,right-handed,44,0.611,1
16462,A,MacIntel,RED,LABEL,black,yellow,yellow,left,incongruent,para_dis,2,female,19,right-handed,45,0.493,1
16462,A,MacIntel,YELLOW,MAIN,yellow,black,yellow,left,congruent,foveal_unified,2,female,19,right-handed,46,0.268,1
16462,A,MacIntel,SHORT,BLUE,black,yellow,yellow,left,incongruent,para_unified,2,female,19,right-handed,47,0.248,1
16462,A,MacIntel,SIDE,RED,black,red,red,right,congruent,para_unified,2,female,19,right-handed,48,0.437,1
16462,A,MacIntel,RED,LABEL,yellow,black,yellow,left,incongruent,foveal_unified,2,female,19,right-handed,49,0.526,1
16462,A,MacIntel,MAIN,RED,black,blue,blue,right,incongruent,para_unified,2,female,19,right-handed,50,0.399,0
16462,A,MacIntel,MAIN,BLUE,blue,black,blue,right,congruent,fov_dis,2,female,19,right-handed,51,0.463,1
16462,A,MacIntel,SHORT,GREEN,yellow,black,yellow,right,incongruent,fov_dis,2,female,19,right-handed,52,0.577,1
16462,A,MacIntel,SHORT,YELLOW,black,yellow,yellow,right,congruent,para_unified,2,female,19,right-handed,53,0.308,1
16462,A,MacIntel,SHORT,BLUE,yellow,black,yellow,left,incongruent,fov_dis,2,female,19,right-handed,54,0.3,1
16462,A,MacIntel,SHORT,RED,black,red,red,left,congruent,para_unified,2,female,19,right-handed,55,0.387,1
16462,A,MacIntel,MAIN,BLUE,black,blue,blue,right,congruent,para_unified,2,female,19,right-handed,56,0.481,1
16462,A,MacIntel,RED,SHORT,red,black,red,left,congruent,foveal_unified,2,female,19,right-handed,57,0.502,1
16462,A,MacIntel,MAIN,GREEN,blue,black,blue,left,incongruent,fov_dis,2,female,19,right-handed,58,0.52,1
16462,A,MacIntel,BLUE,SIDE,yellow,black,yellow,right,incongruent,foveal_unified,2,female,19,right-handed,59,0.496,1
16462,A,MacIntel,MAIN,GREEN,black,blue,blue,left,incongruent,para_unified,2,female,19,right-handed,60,0.285,1
16462,A,MacIntel,GREEN,MAIN,black,red,red,left,incongruent,para_dis,2,female,19,right-handed,61,0.576,1
16462,A,MacIntel,GREEN,LABEL,black,green,green,right,congruent,para_dis,2,female,19,right-handed,62,0.627,1
16462,A,MacIntel,SHORT,YELLOW,yellow,black,yellow,right,congruent,fov_dis,2,female,19,right-handed,63,0.442,1
16462,A,MacIntel,SIDE,GREEN,black,green,green,left,congruent,para_unified,2,female,19,right-handed,64,0.664,1
16462,A,MacIntel,SHORT,RED,black,yellow,yellow,right,incongruent,para_unified,3,female,19,right-handed,1,0.5,1
16462,A,MacIntel,GREEN,SHORT,blue,black,blue,left,incongruent,foveal_unified,3,female,19,right-handed,2,0.57,1
16462,A,MacIntel,BLUE,SHORT,black,blue,blue,right,congruent,para_dis,3,female,19,right-handed,3,0.535,1
16462,A,MacIntel,BLUE,SHORT,blue,black,blue,right,congruent,foveal_unified,3,female,19,right-handed,4,0.367,1
16462,A,MacIntel,SIDE,GREEN,black,red,red,right,incongruent,para_unified,3,female,19,right-handed,5,0.426,1
16462,A,MacIntel,MAIN,BLUE,black,blue,blue,left,congruent,para_unified,3,female,19,right-handed,6,0.426,1
16462,A,MacIntel,RED,SHORT,black,blue,blue,right,incongruent,para_dis,3,female,19,right-handed,7,0.421,1
16462,A,MacIntel,LABEL,RED,red,black,red,right,congruent,fov_dis,3,female,19,right-handed,8,0.365,1
16462,A,MacIntel,LABEL,BLUE,green,black,green,right,incongruent,fov_dis,3,female,19,right-handed,9,0.703,1
16462,A,MacIntel,SIDE,YELLOW,yellow,black,yellow,right,congruent,fov_dis,3,female,19,right-handed,10,0.682,1
16462,A,MacIntel,SHORT,RED,yellow,black,yellow,right,incongruent,fov_dis,3,female,19,right-handed,11,0.275,1
16462,A,MacIntel,MAIN,GREEN,green,black,green,right,congruent,fov_dis,3,female,19,right-handed,12,0.426,0
16462,A,MacIntel,YELLOW,MAIN,green,black,green,right,incongruent,foveal_unified,3,female,19,right-handed,13,1.124,1
16462,A,MacIntel,YELLOW,SIDE,yellow,black,yellow,right,congruent,foveal_unified,3,female,19,right-handed,14,0.421,1
16462,A,MacIntel,BLUE,SIDE,black,yellow,yellow,left,incongruent,para_dis,3,female,19,right-handed,15,0.503,1
16462,A,MacIntel,YELLOW,SIDE,black,yellow,yellow,right,congruent,para_dis,3,female,19,right-handed,16,0.325,1
16462,A,MacIntel,RED,LABEL,black,red,red,right,congruent,para_dis,3,female,19,right-handed,17,0.588,1
16462,A,MacIntel,GREEN,MAIN,black,green,green,right,congruent,para_dis,3,female,19,right-handed,18,0.589,1
16462,A,MacIntel,SIDE,RED,red,black,red,left,congruent,fov_dis,3,female,19,right-handed,19,0.576,1
16462,A,MacIntel,MAIN,BLUE,blue,black,blue,left,congruent,fov_dis,3,female,19,right-handed,20,0.486,1
16462,A,MacIntel,LABEL,YELLOW,green,black,green,left,incongruent,fov_dis,3,female,19,right-handed,21,0.503,1
16462,A,MacIntel,LABEL,GREEN,green,black,green,left,congruent,fov_dis,3,female,19,right-handed,22,0.414,1
16462,A,MacIntel,SIDE,BLUE,red,black,red,left,incongruent,fov_dis,3,female,19,right-handed,23,0.346,1
16462,A,MacIntel,BLUE,MAIN,blue,black,blue,left,congruent,foveal_unified,3,female,19,right-handed,24,0.465,1
16462,A,MacIntel,GREEN,LABEL,green,black,green,left,congruent,foveal_unified,3,female,19,right-handed,25,0.433,1
16462,A,MacIntel,LABEL,BLUE,black,green,green,right,incongruent,para_unified,3,female,19,right-handed,26,0.384,1
16462,A,MacIntel,GREEN,SIDE,yellow,black,yellow,right,incongruent,foveal_unified,3,female,19,right-handed,27,0.504,1
16462,A,MacIntel,SHORT,BLUE,blue,black,blue,right,congruent,fov_dis,3,female,19,right-handed,28,0.518,1
16462,A,MacIntel,LABEL,RED,black,red,red,right,congruent,para_unified,3,female,19,right-handed,29,0.64,1
16462,A,MacIntel,LABEL,YELLOW,black,green,green,left,incongruent,para_unified,3,female,19,right-handed,30,0.543,1
16462,A,MacIntel,RED,SHORT,blue,black,blue,right,incongruent,foveal_unified,3,female,19,right-handed,31,0.495,1
16462,A,MacIntel,SIDE,YELLOW,black,yellow,yellow,right,congruent,para_unified,3,female,19,right-handed,32,0.52,1
16462,A,MacIntel,SHORT,YELLOW,yellow,black,yellow,left,congruent,fov_dis,3,female,19,right-handed,33,0.413,1
16462,A,MacIntel,LABEL,GREEN,black,green,green,left,congruent,para_unified,3,female,19,right-handed,34,0.697,1
16462,A,MacIntel,YELLOW,MAIN,black,green,green,right,incongruent,para_dis,3,female,19,right-handed,35,0.386,1
16462,A,MacIntel,RED,MAIN,black,green,green,left,incongruent,para_dis,3,female,19,right-handed,36,0.454,1
16462,A,MacIntel,MAIN,RED,blue,black,blue,left,incongruent,fov_dis,3,female,19,right-handed,37,0.381,1
16462,A,MacIntel,MAIN,RED,black,blue,blue,left,incongruent,para_unified,3,female,19,right-handed,38,0.244,1
16462,A,MacIntel,RED,SIDE,red,black,red,left,congruent,foveal_unified,3,female,19,right-handed,39,0.452,1
16462,A,MacIntel,RED,SIDE,black,red,red,left,congruent,para_dis,3,female,19,right-handed,40,0.282,1
16462,A,MacIntel,SHORT,BLUE,black,blue,blue,right,congruent,para_unified,3,female,19,right-handed,41,0.395,1
16462,A,MacIntel,BLUE,SIDE,yellow,black,yellow,left,incongruent,foveal_unified,3,female,19,right-handed,42,0.347,1
16462,A,MacIntel,MAIN,YELLOW,black,blue,blue,right,incongruent,para_unified,3,female,19,right-handed,43,0.443,1
16462,A,MacIntel,SHORT,GREEN,yellow,black,yellow,left,incongruent,fov_dis,3,female,19,right-handed,44,0.376,1
16462,A,MacIntel,MAIN,GREEN,black,green,green,right,congruent,para_unified,3,female,19,right-handed,45,0.425,1
16462,A,MacIntel,SIDE,RED,black,red,red,left,congruent,para_unified,3,female,19,right-handed,46,0.394,1
16462,A,MacIntel,BLUE,MAIN,black,blue,blue,left,congruent,para_dis,3,female,19,right-handed,47,0.404,1
16462,A,MacIntel,BLUE,LABEL,black,red,red,right,incongruent,para_dis,3,female,19,right-handed,48,0.291,1
16462,A,MacIntel,GREEN,SIDE,black,yellow,yellow,right,incongruent,para_dis,3,female,19,right-handed,49,0.353,1
16462,A,MacIntel,RED,LABEL,red,black,red,right,congruent,foveal_unified,3,female,19,right-handed,50,0.348,1
16462,A,MacIntel,SHORT,GREEN,black,yellow,yellow,left,incongruent,para_unified,3,female,19,right-handed,51,0.531,1
16462,A,MacIntel,YELLOW,LABEL,red,black,red,left,incongruent,foveal_unified,3,female,19,right-handed,52,0.587,1
16462,A,MacIntel,BLUE,LABEL,red,black,red,right,incongruent,foveal_unified,3,female,19,right-handed,53,0.279,1
16462,A,MacIntel,RED,MAIN,green,black,green,left,incongruent,foveal_unified,3,female,19,right-handed,54,0.662,1
16462,A,MacIntel,YELLOW,LABEL,black,red,red,left,incongruent,para_dis,3,female,19,right-handed,55,0.454,1
16462,A,MacIntel,SIDE,GREEN,red,black,red,right,incongruent,fov_dis,3,female,19,right-handed,56,0.288,1
16462,A,MacIntel,GREEN,SHORT,black,blue,blue,left,incongruent,para_dis,3,female,19,right-handed,57,0.506,1
16462,A,MacIntel,YELLOW,SHORT,black,yellow,yellow,left,congruent,para_dis,3,female,19,right-handed,58,0.453,1
16462,A,MacIntel,MAIN,YELLOW,blue,black,blue,right,incongruent,fov_dis,3,female,19,right-handed,59,0.436,1
16462,A,MacIntel,SIDE,BLUE,black,red,red,left,incongruent,para_unified,3,female,19,right-handed,60,0.563,1
16462,A,MacIntel,GREEN,LABEL,black,green,green,left,congruent,para_dis,3,female,19,right-handed,61,0.521,0
16462,A,MacIntel,GREEN,MAIN,green,black,green,right,congruent,foveal_unified,3,female,19,right-handed,62,0.247,1
16462,A,MacIntel,YELLOW,SHORT,yellow,black,yellow,left,congruent,foveal_unified,3,female,19,right-handed,63,0.549,1
16462,A,MacIntel,SHORT,YELLOW,black,yellow,yellow,left,congruent,para_unified,3,female,19,right-handed,64,0.384,1
16462,A,MacIntel,SHORT,YELLOW,black,green,green,right,incongruent,para_unified,4,female,19,right-handed,1,0.671,1
16462,A,MacIntel,YELLOW,SHORT,black,red,red,right,incongruent,para_dis,4,female,19,right-handed,2,0.546,1
16462,A,MacIntel,LABEL,YELLOW,yellow,black,yellow,right,congruent,fov_dis,4,female,19,right-handed,3,0.533,1
16462,A,MacIntel,YELLOW,SHORT,red,black,red,right,incongruent,foveal_unified,4,female,19,right-handed,4,0.721,1
16462,A,MacIntel,GREEN,LABEL,blue,black,blue,right,incongruent,foveal_unified,4,female,19,right-handed,5,0.381,1
16462,A,MacIntel,MAIN,RED,black,red,red,right,congruent,para_unified,4,female,19,right-handed,6,0.312,1
16462,A,MacIntel,BLUE,LABEL,green,black,green,left,incongruent,foveal_unified,4,female,19,right-handed,7,0.447,1
16462,A,MacIntel,SHORT,RED,black,green,green,left,incongruent,para_unified,4,female,19,right-handed,8,0.421,1
16462,A,MacIntel,BLUE,SIDE,blue,black,blue,right,congruent,foveal_unified,4,female,19,right-handed,9,0.582,1
16462,A,MacIntel,YELLOW,LABEL,black,yellow,yellow,right,congruent,para_dis,4,female,19,right-handed,10,0.502,0
16462,A,MacIntel,RED,SIDE,green,black,green,right,incongruent,foveal_unified,4,female,19,right-handed,11,0.605,1
16462,A,MacIntel,LABEL,BLUE,yellow,black,yellow,left,incongruent,fov_dis,4,female,19,right-handed,12,0.264,1
16462,A,MacIntel,YELLOW,SIDE,yellow,black,yellow,left,congruent,foveal_unified,4,female,19,right-handed,13,0.262,1
16462,A,MacIntel,BLUE,SIDE,black,blue,blue,right,congruent,para_dis,4,female,19,right-handed,14,0.353,1
16462,A,MacIntel,RED,MAIN,red,black,red,right,congruent,foveal_unified,4,female,19,right-handed,15,0.563,1
16462,A,MacIntel,RED,SHORT,black,yellow,yellow,left,incongruent,para_dis,4,female,19,right-handed,16,0.564,1
16462,A,MacIntel,BLUE,SHORT,black,blue,blue,left,congruent,para_dis,4,female,19,right-handed,17,0.5,1
16462,A,MacIntel,SIDE,GREEN,blue,black,blue,left,incongruent,fov_dis,4,female,19,right-handed,18,0.3,1
16462,A,MacIntel,RED,SIDE,black,green,green,right,incongruent,para_dis,4,female,19,right-handed,19,0.534,1
16462,A,MacIntel,MAIN,BLUE,red,black,red,right,incongruent,fov_dis,4,female,19,right-handed,20,0.443,1
16462,A,MacIntel,SHORT,RED,green,black,green,left,incongruent,fov_dis,4,female,19,right-handed,21,0.514,1
16462,A,MacIntel,SIDE,BLUE,blue,black,blue,right,congruent,fov_dis,4,female,19,right-handed,22,0.462,1
16462,A,MacIntel,GREEN,MAIN,black,green,green,left,congruent,para_dis,4,female,19,right-handed,23,0.487,1
16462,A,MacIntel,SIDE,YELLOW,black,yellow,yellow,left,congruent,para_unified,4,female,19,right-handed,24,0.376,1
16462,A,MacIntel,MAIN,YELLOW,red,black,red,left,incongruent,fov_dis,4,female,19,right-handed,25,0.57,1
16462,A,MacIntel,BLUE,SHORT,blue,black,blue,left,congruent,foveal_unified,4,female,19,right-handed,26,0.534,1
16462,A,MacIntel,MAIN,GREEN,black,green,green,left,congruent,para_unified,4,female,19,right-handed,27,0.477,1
16462,A,MacIntel,SIDE,BLUE,black,blue,blue,right,congruent,para_unified,4,female,19,right-handed,28,0.301,0
16462,A,MacIntel,SIDE,GREEN,black,blue,blue,left,incongruent,para_unified,4,female,19,right-handed,29,0.481,1
16462,A,MacIntel,SHORT,BLUE,black,blue,blue,left,congruent,para_unified,4,female,19,right-handed,30,0.35,1
16462,A,MacIntel,MAIN,GREEN,green,black,green,left,congruent,fov_dis,4,female,19,right-handed,31,0.51,1
16462,A,MacIntel,GREEN,SIDE,red,black,red,left,incongruent,foveal_unified,4,female,19,right-handed,32,0.497,0
16462,A,MacIntel,MAIN,BLUE,black,red,red,right,incongruent,para_unified,4,female,19,right-handed,33,0.445,1
16462,A,MacIntel,LABEL,GREEN,black,yellow,yellow,right,incongruent,para_unified,4,female,19,right-handed,34,0.288,1
16462,A,MacIntel,RED,LABEL,black,red,red,left,congruent,para_dis,4,female,19,right-handed,35,0.396,0
16462,A,MacIntel,SHORT,GREEN,black,green,green,right,congruent,para_unified,4,female,19,right-handed,36,0.565,1
16462,A,MacIntel,GREEN,SHORT,black,green,green,right,congruent,para_dis,4,female,19,right-handed,37,0.321,1
16462,A,MacIntel,YELLOW,MAIN,blue,black,blue,left,incongruent,foveal_unified,4,female,19,right-handed,38,0.514,1
16462,A,MacIntel,GREEN,LABEL,black,blue,blue,right,incongruent,para_dis,4,female,19,right-handed,39,0.66,1
16462,A,MacIntel,SIDE,RED,blue,black,blue,right,incongruent,fov_dis,4,female,19,right-handed,40,NA,0
16462,A,MacIntel,LABEL,YELLOW,black,yellow,yellow,right,congruent,para_unified,4,female,19,right-handed,41,0.471,1
16462,A,MacIntel,GREEN,SHORT,green,black,green,right,congruent,foveal_unified,4,female,19,right-handed,42,0.73,1
16462,A,MacIntel,BLUE,MAIN,yellow,black,yellow,right,incongruent,foveal_unified,4,female,19,right-handed,43,0.397,1
16462,A,MacIntel,RED,MAIN,black,red,red,right,congruent,para_dis,4,female,19,right-handed,44,0.409,1
16462,A,MacIntel,SHORT,BLUE,blue,black,blue,left,congruent,fov_dis,4,female,19,right-handed,45,0.519,1
16462,A,MacIntel,RED,SHORT,yellow,black,yellow,left,incongruent,foveal_unified,4,female,19,right-handed,46,0.587,1
16462,A,MacIntel,YELLOW,MAIN,black,blue,blue,left,incongruent,para_dis,4,female,19,right-handed,47,0.575,1
16462,A,MacIntel,GREEN,SIDE,black,red,red,left,incongruent,para_dis,4,female,19,right-handed,48,0.495,1
16462,A,MacIntel,LABEL,GREEN,yellow,black,yellow,right,incongruent,fov_dis,4,female,19,right-handed,49,0.387,1
16462,A,MacIntel,LABEL,BLUE,black,yellow,yellow,left,incongruent,para_unified,4,female,19,right-handed,50,0.379,1
16462,A,MacIntel,LABEL,RED,black,red,red,left,congruent,para_unified,4,female,19,right-handed,51,0.362,1
16462,A,MacIntel,SHORT,YELLOW,green,black,green,right,incongruent,fov_dis,4,female,19,right-handed,52,0.367,1
16462,A,MacIntel,YELLOW,SIDE,black,yellow,yellow,left,congruent,para_dis,4,female,19,right-handed,53,0.414,1
16462,A,MacIntel,BLUE,LABEL,black,green,green,left,incongruent,para_dis,4,female,19,right-handed,54,0.737,1
16462,A,MacIntel,YELLOW,LABEL,yellow,black,yellow,right,congruent,foveal_unified,4,female,19,right-handed,55,0.427,1
16462,A,MacIntel,GREEN,MAIN,green,black,green,left,congruent,foveal_unified,4,female,19,right-handed,56,0.58,1
16462,A,MacIntel,BLUE,MAIN,black,yellow,yellow,right,incongruent,para_dis,4,female,19,right-handed,57,0.433,1
16462,A,MacIntel,LABEL,RED,red,black,red,left,congruent,fov_dis,4,female,19,right-handed,58,0.475,1
16462,A,MacIntel,SIDE,YELLOW,yellow,black,yellow,left,congruent,fov_dis,4,female,19,right-handed,59,0.416,1
16462,A,MacIntel,RED,LABEL,red,black,red,left,congruent,foveal_unified,4,female,19,right-handed,60,0.354,1
16462,A,MacIntel,MAIN,YELLOW,black,red,red,left,incongruent,para_unified,4,female,19,right-handed,61,0.419,1
16462,A,MacIntel,SIDE,RED,black,blue,blue,right,incongruent,para_unified,4,female,19,right-handed,62,0.446,1
16462,A,MacIntel,SHORT,GREEN,green,black,green,right,congruent,fov_dis,4,female,19,right-handed,63,0.324,1
16462,A,MacIntel,MAIN,RED,red,black,red,right,congruent,fov_dis,4,female,19,right-handed,64,0.329,1
16462,A,MacIntel,SHORT,GREEN,green,black,green,left,congruent,fov_dis,5,female,19,right-handed,1,0.501,1
16462,A,MacIntel,SIDE,YELLOW,blue,black,blue,right,incongruent,fov_dis,5,female,19,right-handed,2,0.403,1
16462,A,MacIntel,RED,SHORT,red,black,red,right,congruent,foveal_unified,5,female,19,right-handed,3,0.412,1
16462,A,MacIntel,GREEN,SHORT,green,black,green,left,congruent,foveal_unified,5,female,19,right-handed,4,0.384,1
16462,A,MacIntel,LABEL,YELLOW,black,yellow,yellow,left,congruent,para_unified,5,female,19,right-handed,5,0.489,1
16462,A,MacIntel,BLUE,SIDE,black,blue,blue,left,congruent,para_dis,5,female,19,right-handed,6,0.56,1
16462,A,MacIntel,SIDE,RED,black,blue,blue,left,incongruent,para_unified,5,female,19,right-handed,7,0.422,1
16462,A,MacIntel,BLUE,SHORT,red,black,red,right,incongruent,foveal_unified,5,female,19,right-handed,8,0.446,1
16462,A,MacIntel,GREEN,LABEL,black,blue,blue,left,incongruent,para_dis,5,female,19,right-handed,9,0.396,1
16462,A,MacIntel,SIDE,BLUE,black,blue,blue,left,congruent,para_unified,5,female,19,right-handed,10,0.338,1
16462,A,MacIntel,BLUE,SHORT,black,red,red,right,incongruent,para_dis,5,female,19,right-handed,11,0.57,1
16462,A,MacIntel,SIDE,BLUE,blue,black,blue,left,congruent,fov_dis,5,female,19,right-handed,12,0.434,1
16462,A,MacIntel,BLUE,MAIN,yellow,black,yellow,left,incongruent,foveal_unified,5,female,19,right-handed,13,0.359,1
16462,A,MacIntel,BLUE,LABEL,black,blue,blue,right,congruent,para_dis,5,female,19,right-handed,14,0.476,1
16462,A,MacIntel,GREEN,SIDE,green,black,green,right,congruent,foveal_unified,5,female,19,right-handed,15,0.581,1
16462,A,MacIntel,MAIN,GREEN,black,red,red,right,incongruent,para_unified,5,female,19,right-handed,16,0.456,1
16462,A,MacIntel,YELLOW,MAIN,black,yellow,yellow,right,congruent,para_dis,5,female,19,right-handed,17,0.438,1
16462,A,MacIntel,GREEN,LABEL,blue,black,blue,left,incongruent,foveal_unified,5,female,19,right-handed,18,0.426,1
16462,A,MacIntel,LABEL,BLUE,blue,black,blue,right,congruent,fov_dis,5,female,19,right-handed,19,0.336,1
16462,A,MacIntel,MAIN,GREEN,red,black,red,right,incongruent,fov_dis,5,female,19,right-handed,20,0.379,1
16462,A,MacIntel,LABEL,GREEN,black,yellow,yellow,left,incongruent,para_unified,5,female,19,right-handed,21,0.434,1
16462,A,MacIntel,YELLOW,LABEL,yellow,black,yellow,left,congruent,foveal_unified,5,female,19,right-handed,22,0.287,1
16462,A,MacIntel,SIDE,RED,blue,black,blue,left,incongruent,fov_dis,5,female,19,right-handed,23,0.612,1
16462,A,MacIntel,YELLOW,SIDE,black,green,green,right,incongruent,para_dis,5,female,19,right-handed,24,0.451,1
16462,A,MacIntel,YELLOW,SHORT,black,red,red,left,incongruent,para_dis,5,female,19,right-handed,25,0.504,1
16462,A,MacIntel,YELLOW,SIDE,green,black,green,right,incongruent,foveal_unified,5,female,19,right-handed,26,0.586,1
16462,A,MacIntel,BLUE,LABEL,blue,black,blue,right,congruent,foveal_unified,5,female,19,right-handed,27,0.419,1
16462,A,MacIntel,BLUE,SIDE,blue,black,blue,left,congruent,foveal_unified,5,female,19,right-handed,28,0.346,1
16462,A,MacIntel,LABEL,GREEN,yellow,black,yellow,left,incongruent,fov_dis,5,female,19,right-handed,29,0.47,0
16462,A,MacIntel,GREEN,MAIN,yellow,black,yellow,right,incongruent,foveal_unified,5,female,19,right-handed,30,0.351,1
16462,A,MacIntel,SIDE,GREEN,green,black,green,right,congruent,fov_dis,5,female,19,right-handed,31,0.526,1
16462,A,MacIntel,MAIN,RED,black,red,red,left,congruent,para_unified,5,female,19,right-handed,32,0.455,1
16462,A,MacIntel,SIDE,YELLOW,black,blue,blue,right,incongruent,para_unified,5,female,19,right-handed,33,0.453,1
16462,A,MacIntel,SHORT,YELLOW,green,black,green,left,incongruent,fov_dis,5,female,19,right-handed,34,0.406,1
16462,A,MacIntel,RED,LABEL,black,blue,blue,right,incongruent,para_dis,5,female,19,right-handed,35,0.433,0
16462,A,MacIntel,MAIN,BLUE,black,red,red,left,incongruent,para_unified,5,female,19,right-handed,36,0.476,1
16462,A,MacIntel,SHORT,BLUE,green,black,green,right,incongruent,fov_dis,5,female,19,right-handed,37,0.665,1
16462,A,MacIntel,SHORT,BLUE,black,green,green,right,incongruent,para_unified,5,female,19,right-handed,38,0.437,1
16462,A,MacIntel,LABEL,BLUE,black,blue,blue,right,congruent,para_unified,5,female,19,right-handed,39,0.504,1
16462,A,MacIntel,YELLOW,MAIN,yellow,black,yellow,right,congruent,foveal_unified,5,female,19,right-handed,40,0.587,1
16462,A,MacIntel,LABEL,YELLOW,yellow,black,yellow,left,congruent,fov_dis,5,female,19,right-handed,41,0.375,1
16462,A,MacIntel,RED,SIDE,black,green,green,left,incongruent,para_dis,5,female,19,right-handed,42,0.647,1
16462,A,MacIntel,LABEL,RED,black,yellow,yellow,right,incongruent,para_unified,5,female,19,right-handed,43,0.549,1
16462,A,MacIntel,RED,MAIN,black,red,red,left,congruent,para_dis,5,female,19,right-handed,44,0.601,1
16462,A,MacIntel,SHORT,RED,black,red,red,right,congruent,para_unified,5,female,19,right-handed,45,0.475,1
16462,A,MacIntel,YELLOW,LABEL,black,yellow,yellow,left,congruent,para_dis,5,female,19,right-handed,46,0.514,1
16462,A,MacIntel,GREEN,SIDE,black,green,green,right,congruent,para_dis,5,female,19,right-handed,47,0.637,1
16462,A,MacIntel,YELLOW,SHORT,red,black,red,left,incongruent,foveal_unified,5,female,19,right-handed,48,0.683,1
16462,A,MacIntel,MAIN,YELLOW,black,yellow,yellow,right,congruent,para_unified,5,female,19,right-handed,49,0.404,1
16462,A,MacIntel,SHORT,GREEN,black,green,green,left,congruent,para_unified,5,female,19,right-handed,50,0.66,1
16462,A,MacIntel,BLUE,MAIN,black,yellow,yellow,left,incongruent,para_dis,5,female,19,right-handed,51,0.546,0
16462,A,MacIntel,GREEN,SHORT,black,green,green,left,congruent,para_dis,5,female,19,right-handed,52,0.529,1
16462,A,MacIntel,LABEL,RED,yellow,black,yellow,right,incongruent,fov_dis,5,female,19,right-handed,53,0.539,1
16462,A,MacIntel,RED,SHORT,black,red,red,right,congruent,para_dis,5,female,19,right-handed,54,0.531,1
16462,A,MacIntel,SHORT,YELLOW,black,green,green,left,incongruent,para_unified,5,female,19,right-handed,55,0.56,1
16462,A,MacIntel,MAIN,RED,red,black,red,left,congruent,fov_dis,5,female,19,right-handed,56,0.587,1
16462,A,MacIntel,RED,LABEL,blue,black,blue,right,incongruent,foveal_unified,5,female,19,right-handed,57,0.623,1
16462,A,MacIntel,SIDE,GREEN,black,green,green,right,congruent,para_unified,5,female,19,right-handed,58,0.555,1
16462,A,MacIntel,GREEN,MAIN,black,yellow,yellow,right,incongruent,para_dis,5,female,19,right-handed,59,0.472,1
16462,A,MacIntel,RED,MAIN,red,black,red,left,congruent,foveal_unified,5,female,19,right-handed,60,0.463,1
16462,A,MacIntel,MAIN,BLUE,red,black,red,left,incongruent,fov_dis,5,female,19,right-handed,61,0.363,1
16462,A,MacIntel,MAIN,YELLOW,yellow,black,yellow,right,congruent,fov_dis,5,female,19,right-handed,62,0.419,1
16462,A,MacIntel,SHORT,RED,red,black,red,right,congruent,fov_dis,5,female,19,right-handed,63,0.344,1
16462,A,MacIntel,RED,SIDE,green,black,green,left,incongruent,foveal_unified,5,female,19,right-handed,64,0.481,1
16462,A,MacIntel,SHORT,GREEN,black,yellow,yellow,right,incongruent,para_unified,6,female,19,right-handed,1,0.494,0
16462,A,MacIntel,GREEN,SHORT,blue,black,blue,right,incongruent,foveal_unified,6,female,19,right-handed,2,0.717,0
16462,A,MacIntel,MAIN,YELLOW,black,yellow,yellow,left,congruent,para_unified,6,female,19,right-handed,3,0.471,1
16462,A,MacIntel,LABEL,YELLOW,black,green,green,right,incongruent,para_unified,6,female,19,right-handed,4,0.559,0
16462,A,MacIntel,SIDE,YELLOW,black,red,red,left,incongruent,para_unified,6,female,19,right-handed,5,0.503,0
16462,A,MacIntel,MAIN,RED,black,blue,blue,right,incongruent,para_unified,6,female,19,right-handed,6,0.484,0
16462,A,MacIntel,GREEN,SHORT,black,blue,blue,right,incongruent,para_dis,6,female,19,right-handed,7,0.319,0
16462,A,MacIntel,BLUE,SHORT,green,black,green,left,incongruent,foveal_unified,6,female,19,right-handed,8,0.43,0
16462,A,MacIntel,RED,LABEL,yellow,black,yellow,left,incongruent,foveal_unified,6,female,19,right-handed,9,0.431,0
16462,A,MacIntel,SHORT,YELLOW,black,yellow,yellow,right,congruent,para_unified,6,female,19,right-handed,10,0.263,1
16462,A,MacIntel,BLUE,LABEL,blue,black,blue,left,congruent,foveal_unified,6,female,19,right-handed,11,0.502,1
16462,A,MacIntel,YELLOW,SHORT,yellow,black,yellow,right,congruent,foveal_unified,6,female,19,right-handed,12,0.388,1
16462,A,MacIntel,MAIN,RED,blue,black,blue,right,incongruent,fov_dis,6,female,19,right-handed,13,0.517,0
16462,A,MacIntel,BLUE,SIDE,black,yellow,yellow,right,incongruent,para_dis,6,female,19,right-handed,14,0.455,0
16462,A,MacIntel,YELLOW,MAIN,black,yellow,yellow,left,congruent,para_dis,6,female,19,right-handed,15,0.327,1
16462,A,MacIntel,RED,MAIN,green,black,green,right,incongruent,foveal_unified,6,female,19,right-handed,16,0.603,0
16462,A,MacIntel,LABEL,BLUE,blue,black,blue,left,congruent,fov_dis,6,female,19,right-handed,17,0.527,1
16462,A,MacIntel,SHORT,RED,red,black,red,left,congruent,fov_dis,6,female,19,right-handed,18,0.515,1
16462,A,MacIntel,SIDE,YELLOW,red,black,red,left,incongruent,fov_dis,6,female,19,right-handed,19,0.279,0
16462,A,MacIntel,LABEL,RED,green,black,green,left,incongruent,fov_dis,6,female,19,right-handed,20,0.55,0
16462,A,MacIntel,LABEL,RED,black,green,green,left,incongruent,para_unified,6,female,19,right-handed,21,0.431,0
16462,A,MacIntel,YELLOW,LABEL,black,red,red,right,incongruent,para_dis,6,female,19,right-handed,22,0.652,0
16462,A,MacIntel,LABEL,BLUE,black,blue,blue,left,congruent,para_unified,6,female,19,right-handed,23,0.552,1
16462,A,MacIntel,MAIN,BLUE,black,blue,blue,right,congruent,para_unified,6,female,19,right-handed,24,0.369,1
16462,A,MacIntel,BLUE,MAIN,black,blue,blue,right,congruent,para_dis,6,female,19,right-handed,25,0.37,1
16462,A,MacIntel,RED,MAIN,black,green,green,right,incongruent,para_dis,6,female,19,right-handed,26,0.497,0
16462,A,MacIntel,SIDE,RED,red,black,red,right,congruent,fov_dis,6,female,19,right-handed,27,0.543,1
16462,A,MacIntel,GREEN,MAIN,black,red,red,left,incongruent,para_dis,6,female,19,right-handed,28,0.308,0
16462,A,MacIntel,LABEL,GREEN,black,green,green,right,congruent,para_unified,6,female,19,right-handed,29,0.462,1
16462,A,MacIntel,RED,SIDE,black,red,red,right,congruent,para_dis,6,female,19,right-handed,30,0.522,1
16462,A,MacIntel,SIDE,BLUE,black,red,red,right,incongruent,para_unified,6,female,19,right-handed,31,0.245,0
16462,A,MacIntel,SHORT,BLUE,yellow,black,yellow,left,incongruent,fov_dis,6,female,19,right-handed,32,0.722,0
16462,A,MacIntel,RED,LABEL,black,yellow,yellow,left,incongruent,para_dis,6,female,19,right-handed,33,0.37,0
16462,A,MacIntel,RED,SIDE,red,black,red,right,congruent,foveal_unified,6,female,19,right-handed,34,0.486,1
16462,A,MacIntel,SIDE,BLUE,red,black,red,right,incongruent,fov_dis,6,female,19,right-handed,35,0.354,0
16462,A,MacIntel,SIDE,GREEN,black,green,green,left,congruent,para_unified,6,female,19,right-handed,36,0.531,1
16462,A,MacIntel,MAIN,GREEN,black,blue,blue,left,incongruent,para_unified,6,female,19,right-handed,37,0.544,0
16462,A,MacIntel,RED,SHORT,black,red,red,left,congruent,para_dis,6,female,19,right-handed,38,0.413,1
16462,A,MacIntel,SHORT,GREEN,yellow,black,yellow,right,incongruent,fov_dis,6,female,19,right-handed,39,0.376,0
16462,A,MacIntel,SHORT,BLUE,black,yellow,yellow,left,incongruent,para_unified,6,female,19,right-handed,40,0.362,0
16462,A,MacIntel,SIDE,GREEN,green,black,green,left,congruent,fov_dis,6,female,19,right-handed,41,0.463,1
16462,A,MacIntel,GREEN,MAIN,red,black,red,left,incongruent,foveal_unified,6,female,19,right-handed,42,0.446,0
16462,A,MacIntel,BLUE,SIDE,yellow,black,yellow,right,incongruent,foveal_unified,6,female,19,right-handed,43,0.485,0
16462,A,MacIntel,GREEN,LABEL,green,black,green,right,congruent,foveal_unified,6,female,19,right-handed,44,0.655,1
16462,A,MacIntel,MAIN,BLUE,blue,black,blue,right,congruent,fov_dis,6,female,19,right-handed,45,0.353,1
16462,A,MacIntel,GREEN,SIDE,black,green,green,left,congruent,para_dis,6,female,19,right-handed,46,0.504,1
16462,A,MacIntel,YELLOW,SHORT,black,yellow,yellow,right,congruent,para_dis,6,female,19,right-handed,47,0.539,1
16462,A,MacIntel,BLUE,LABEL,black,blue,blue,left,congruent,para_dis,6,female,19,right-handed,48,0.398,1
16462,A,MacIntel,SHORT,YELLOW,yellow,black,yellow,right,congruent,fov_dis,6,female,19,right-handed,49,0.393,0
16462,A,MacIntel,SHORT,RED,black,red,red,left,congruent,para_unified,6,female,19,right-handed,50,0.433,1
16462,A,MacIntel,YELLOW,SIDE,black,blue,blue,left,incongruent,para_dis,6,female,19,right-handed,51,0.56,0
16462,A,MacIntel,YELLOW,SIDE,blue,black,blue,left,incongruent,foveal_unified,6,female,19,right-handed,52,0.62,0
16462,A,MacIntel,MAIN,GREEN,blue,black,blue,left,incongruent,fov_dis,6,female,19,right-handed,53,0.284,0
16462,A,MacIntel,YELLOW,LABEL,red,black,red,right,incongruent,foveal_unified,6,female,19,right-handed,54,0.717,0
16462,A,MacIntel,LABEL,GREEN,green,black,green,right,congruent,fov_dis,6,female,19,right-handed,55,0.563,1
16462,A,MacIntel,RED,SHORT,red,black,red,left,congruent,foveal_unified,6,female,19,right-handed,56,0.576,1
16462,A,MacIntel,BLUE,MAIN,blue,black,blue,right,congruent,foveal_unified,6,female,19,right-handed,57,0.525,1
16462,A,MacIntel,SIDE,RED,black,red,red,right,congruent,para_unified,6,female,19,right-handed,58,0.537,1
16462,A,MacIntel,BLUE,SHORT,black,green,green,left,incongruent,para_dis,6,female,19,right-handed,59,0.572,0
16462,A,MacIntel,MAIN,YELLOW,yellow,black,yellow,left,congruent,fov_dis,6,female,19,right-handed,60,0.57,1
16462,A,MacIntel,GREEN,SIDE,green,black,green,left,congruent,foveal_unified,6,female,19,right-handed,61,0.451,1
16462,A,MacIntel,LABEL,YELLOW,green,black,green,right,incongruent,fov_dis,6,female,19,right-handed,62,0.347,0
16462,A,MacIntel,YELLOW,MAIN,yellow,black,yellow,left,congruent,foveal_unified,6,female,19,right-handed,63,0.622,1
16462,A,MacIntel,GREEN,LABEL,black,green,green,right,congruent,para_dis,6,female,19,right-handed,64,0.527,1
16462,A,MacIntel,SHORT,RED,yellow,black,yellow,right,incongruent,fov_dis,7,female,19,right-handed,1,0.52,1
16462,A,MacIntel,BLUE,SIDE,yellow,black,yellow,left,incongruent,foveal_unified,7,female,19,right-handed,2,0.305,1
16462,A,MacIntel,LABEL,RED,red,black,red,right,congruent,fov_dis,7,female,19,right-handed,3,0.454,1
16462,A,MacIntel,GREEN,SHORT,black,blue,blue,left,incongruent,para_dis,7,female,19,right-handed,4,0.464,1
16462,A,MacIntel,LABEL,RED,black,red,red,right,congruent,para_unified,7,female,19,right-handed,5,0.494,1
16462,A,MacIntel,SIDE,YELLOW,yellow,black,yellow,right,congruent,fov_dis,7,female,19,right-handed,6,0.485,1
16462,A,MacIntel,GREEN,LABEL,black,green,green,left,congruent,para_dis,7,female,19,right-handed,7,0.895,1
16462,A,MacIntel,SIDE,GREEN,red,black,red,right,incongruent,fov_dis,7,female,19,right-handed,8,0.359,1
16462,A,MacIntel,MAIN,RED,blue,black,blue,left,incongruent,fov_dis,7,female,19,right-handed,9,0.476,1
16462,A,MacIntel,YELLOW,MAIN,black,green,green,right,incongruent,para_dis,7,female,19,right-handed,10,0.533,1
16462,A,MacIntel,SIDE,YELLOW,black,yellow,yellow,right,congruent,para_unified,7,female,19,right-handed,11,0.464,1
16462,A,MacIntel,BLUE,MAIN,black,blue,blue,left,congruent,para_dis,7,female,19,right-handed,12,0.513,1
16462,A,MacIntel,BLUE,SHORT,black,blue,blue,right,congruent,para_dis,7,female,19,right-handed,13,0.412,1
16462,A,MacIntel,YELLOW,MAIN,green,black,green,right,incongruent,foveal_unified,7,female,19,right-handed,14,0.568,1
16462,A,MacIntel,MAIN,YELLOW,black,blue,blue,right,incongruent,para_unified,7,female,19,right-handed,15,0.479,1
16462,A,MacIntel,RED,LABEL,black,red,red,right,congruent,para_dis,7,female,19,right-handed,16,0.55,1
16462,A,MacIntel,LABEL,YELLOW,black,green,green,left,incongruent,para_unified,7,female,19,right-handed,17,0.554,1
16462,A,MacIntel,SIDE,RED,red,black,red,left,congruent,fov_dis,7,female,19,right-handed,18,0.542,1
16462,A,MacIntel,SIDE,GREEN,black,red,red,right,incongruent,para_unified,7,female,19,right-handed,19,0.478,1
16462,A,MacIntel,SIDE,BLUE,red,black,red,left,incongruent,fov_dis,7,female,19,right-handed,20,0.304,1
16462,A,MacIntel,SHORT,YELLOW,black,yellow,yellow,left,congruent,para_unified,7,female,19,right-handed,21,0.528,1
